timestamp, current1, current2, current3, current4, accel x, accel y, accel z, degrees x, degrees y, degrees z, baro temp, baro pressure
3723, 0.00123047, -0.000410156, 0, 0.00123047, 0.139444, 0.220175, 9.79532, -0.12207, 0.0152588, 0.0152588, 21.6146, 92214.5
3733, -0.00164062, 0.00287109, 0.000410156, 0.00205078, 0.156569, 0.232406, 9.78064, -0.0305176, 0.0610352, 0.0305176, 21.614, 92214.3
3743, 0.000410156, -0.000410156, 0.00246094, 0.00328125, 0.139444, 0.207943, 9.80511, -0.0915527, 0, 0.0610352, 21.6232, 92213.9
3753, 0.000410156, 0.00123047, -0.000410156, 0.00328125, 0.154122, 0.215282, 9.79532, -0.137329, -0.0305176, 0.0152588, 21.6176, 92213.8
3763, 0.00246094, 0.00246094, 0.000820312, 0.00205078, 0.146783, 0.227514, 9.79777, -0.12207, -0.0152588, 0.0457764, 21.6094, 92214.2
3773, 0.000410156, 0.00246094, 0.000820312, -0.000410156, 0.14189, 0.217728, 9.78554, -0.152588, 0.0152588, 0.0762939, 21.6104, 92214
3783, 0.000820312, -0.00246094, 0.00205078, 0.00164062, 0.159015, 0.244638, 9.77575, -0.0457764, 0.0152588, 0.0305176, 21.6119, 92213.5
3793, 0.00410156, -0.000410156, 0.00164062, 0.00123047, 0.166354, 0.212835, 9.74639, -0.0610352, 0, 0, 21.6142, 92213.5
3813, 0.000820312, 0.000820312, 0, 0.00164062, 0.163908, 0.227514, 9.78554, -0.0915527, -0.198364, 0.0152588, 21.618, 92213.5
3823, 0.000820312, 0.000820312, 0, -0.00164062, 0.151676, 0.237299, 9.8418, -0.0305176, -0.106812, 0.0152588, 21.6094, 92213.8
3833, -0.000410156, -0.000410156, 0.00164062, 0.000820312, 0.132105, 0.232406, 9.78798, 0, 0.0152588, 0.0152588, 21.6231, 92213.8
3843, 0.00164062, 0.00246094, 0, 0.000820312, 0.144337, 0.232406, 9.7782, -0.0610352, -0.0457764, 0.0762939, 21.6072, 92214.4
3853, 0.00246094, 0.00246094, 0.00164062, 0.00246094, 0.136998, 0.20305, 9.79288, -0.0305176, -0.0762939, 0.0610352, 21.6115, 92213.6
3863, 0.00246094, 0, 0.000820312, 0.00246094, 0.129658, 0.205496, 9.80511, -0.0610352, -0.0762939, 0, 21.611, 92213.9
3873, 0, -0.000820312, 0.000820312, 0.00410156, 0.139444, 0.232406, 9.81734, -0.12207, -0.0610352, 0, 21.6155, 92213.6
3893, -0.000820312, -0.000820312, 0.000410156, 0.00246094, 0.154122, 0.222621, 9.78554, -0.137329, -0.0305176, -0.0457764, 21.6137, 92213.6
3903, 0.00205078, 0.000820312, 0.00164062, 0.00123047, 0.173693, 0.215282, 9.79532, -0.0762939, 0.0152588, -0.0457764, 21.6219, 92213.9
3913, 0.00205078, -0.000820312, 0.00164062, 0.00123047, 0.198157, 0.215282, 9.80511, -0.0915527, 0.0152588, 0.0152588, 21.6133, 92213.9
3923, 0.00164062, -0.00123047, 0.000410156, 0.000820312, 0.17614, 0.215282, 9.78798, -0.0457764, -0.0457764, 0, 21.6213, 92213.3
3933, 0.00369141, -0.00123047, 0.000410156, -0.000410156, 0.190818, 0.242192, 9.75618, -0.0915527, -0.0305176, 0, 21.6104, 92214
3943, 0, -0.000410156, 0.00328125, 0.00369141, 0.173693, 0.22996, 9.78309, -0.0457764, -0.0457764, 0.0457764, 21.6198, 92213.5
3953, 0.00451172, 0.00123047, 0.000410156, 0.00205078, 0.156569, 0.220175, 9.80021, 0.0152588, -0.0915527, 0, 21.6134, 92213.8
3963, 0.00451172, 0.000410156, 0.00123047, 0.00205078, 0.149229, 0.242192, 9.77575, 0, -0.106812, 0.0610352, 21.6196, 92213.9
3983, 0.00246094, 0.00205078, -0.000410156, 0.00328125, 0.144337, 0.232406, 9.80511, -0.0152588, -0.152588, 0.0305176, 21.623, 92213.7
3993, -0.00123047, -0.000410156, -0.000410156, 0.00123047, 0.134551, 0.205496, 9.79288, 0, -0.274658, 0.106812, 21.611, 92213.7
4003, 0, 0.000410156, 0.000820312, 0.00164062, 0.11498, 0.227514, 9.79777, 0, -0.12207, 0.0152588, 21.6142, 92214.1
4013, 0.00287109, 0, 0.000820312, 0.00287109, 0.122319, 0.254424, 9.77575, -0.152588, -0.213623, 0.0305176, 21.621, 92213.7
4023, 0.00287109, 0.000410156, 0.00123047, 0.00287109, 0.11498, 0.261763, 9.7782, -0.0915527, -0.167847, 0.0915527, 21.6216, 92213.8
4033, -0.000410156, 0.000410156, 0.00123047, 0.00164062, 0.136998, 0.227514, 9.79532, -0.106812, -0.198364, 0.0762939, 21.6178, 92213.8
4043, 0.00164062, 0.000410156, 0.00328125, 0.00164062, 0.127212, 0.225067, 9.79777, -0.0152588, -0.183105, 0.0457764, 21.6282, 92213.2
4063, 0.00328125, 0.000820312, 0.00205078, 0.00287109, 0.168801, 0.227514, 9.83691, -0.0762939, -0.0305176, 0, 21.6236, 92214.1
4073, 0.00328125, 0.000820312, 0.00164062, 0.00287109, 0.154122, 0.227514, 9.85648, -0.167847, 0.0610352, -0.0152588, 21.6208, 92213.5
4083, 0.00246094, 0.000820312, 0.00164062, 0, 0.156569, 0.207943, 9.80266, -0.137329, 0.12207, 0.0457764, 21.6136, 92213.8
4093, 0.00246094, 0.000820312, 0.000410156, 0.000410156, 0.190818, 0.220175, 9.7782, -0.0457764, 0.0762939, 0.0305176, 21.6205, 92213.7
4103, 0.00287109, -0.000410156, 0.000410156, 0.00328125, 0.20305, 0.198157, 9.74884, 0, -0.0152588, 0.0915527, 21.6226, 92213.3
4113, 0.00246094, -0.00123047, 0.00205078, 0.00451172, 0.193264, 0.205496, 9.7782, 0.549316, -0.411987, -0.0457764, 21.6069, 92213.8
4123, 0.00246094, 0, -0.00123047, 0.00451172, 0.207943, 0.225067, 9.76597, 1.05286, -0.717163, -0.350952, 21.6093, 92213.9
4133, 0.00123047, -0.00164062, 0.00543457, 0.000820312, 0.207943, 0.283781, 9.79043, 0.350952, -0.427246, -0.366211, 21.6258, 92213.7
4153, 0.00205078, 0, 0.000820312, 0.000410156, 0.472152, 0.496616, 9.7415, 0.915527, -0.762939, 2.74658, 21.6256, 92213.4
4163, 0.00123047, 0.00123047, 0, 0.00123047, 0.709451, 0.998125, 9.49686, 5.49316, -4.08936, 5.4779, 21.6161, 92213.4
4173, 0.00123047, 0.00205078, 0.00164062, 0.00123047, 0.570008, 1.26723, 10.0522, -5.85937, -4.2572, 12.9852, 21.6217, 92213.9
4183, 0.00123047, 0.00123047, 0.00205078, 0.00123047, -1.41401, -1.64642, 9.97391, -7.59888, 1.25122, -3.34167, 21.6104, 92213.3
4193, 0.00328125, 0.00123047, 0.00205078, 0.000410156, 0.181032, 0.198157, 9.70236, 4.21143, -0.701904, 0.0762939, 21.6213, 92213.8
4203, 0.000820312, 0.000410156, 0.00287109, 0.00123047, 0.178586, 0.315584, 9.92253, 0.0457764, -0.0762939, 0.106812, 21.6312, 92213.8
4213, 0.000410156, 0.000410156, 0, 0.00205078, 0.14189, 0.244638, 9.84425, -9.75037, 1.63269, 0.0152588, 21.6078, 92213.6
4223, 0.00205078, 0, 0.00246094, 0.00205078, 0.122319, 0.151676, 9.63386, -8.01086, 1.25122, 0.0457764, 21.6201, 92213.7
4243, 0.000410156, -0.000410156, 0.00164062, 0.00451172, 0.156569, 0.22996, 9.81979, 7.78198, -0.717163, -0.0152588, 21.6168, 92214
4253, 0.00164062, -0.000820312, 0.00123047, 0.00287109, 0.156569, 0.278888, 9.93966, 3.08228, 0.62561, -0.0305176, 21.6313, 92213.6
4263, -0.000820312, -0.00164062, 0.000820312, 0.00205078, 0.173693, 0.254424, 9.8785, -4.3335, 0.701904, 0.0305176, 21.6269, 92213.4
4273, 0.00287109, 0.00164062, 0.000820312, -0.000820312, 0.161461, 0.166354, 9.72193, -4.95911, -0.335693, 0.0457764, 21.6228, 92213.1
4283, 0.00287109, 0.000410156, -0.000820312, -0.000820312, 0.173693, 0.144337, 9.673, 0.778198, -1.25122, 0.0305176, 21.6275, 92214
4293, 0.00287109, 0.000820312, -0.000820312, 0.00287109, 0.171247, 0.159015, 9.74639, 6.05774, -1.58691, 0, 21.6122, 92212.9
4303, 0.000410156, 0.000820312, 0.00164062, 0.00164062, 0.183479, 0.232406, 9.81489, 7.85828, -0.152588, 0.0457764, 21.6272, 92213.7
4323, 0.00328125, 0.00164062, 0.00123047, 0.00287109, 0.200604, 0.222621, 9.79043, -0.0915527, 0.0915527, 0.0457764, 21.6271, 92213
4333, 0.00328125, 0.000820312, 0.00123047, 0.00287109, 0.20305, 0.205496, 9.80755, -0.274658, 0.0915527, 0.0305176, 21.6328, 92213.6
4343, 0.00205078, 0.000820312, 0.00123047, 0.00369141, 0.225067, 0.222621, 9.78554, 0.198364, 0.244141, -0.0152588, 21.618, 92213.3
4353, -0.00246094, 0.000820312, 0.00123047, 0.000820312, 0.225067, 0.25687, 9.80511, -0.961304, 0.50354, 0.0457764, 21.6212, 92213.4
4363, 0.00369141, 0.000820312, 0.00123047, 0.00246094, 0.212835, 0.239746, 9.80266, -2.28882, 0.701904, 0.0305176, 21.6168, 92214
4373, 0.00287109, 0.000410156, 0.00287109, 0.00205078, 0.198157, 0.227514, 9.80266, -3.08228, 0.396728, 0.0305176, 21.6163, 92213.9
4383, 0.00287109, 0.000410156, 0.00123047, 0.00205078, 0.173693, 0.198157, 9.79288, -2.68555, 0.289917, 0.0305176, 21.6115, 92213.1
4393, 0.00287109, -0.000820312, 0.00205078, -0.000410156, 0.151676, 0.210389, 9.77575, -1.4801, 0.228882, 0.0610352, 21.6037, 92213.3
4413, 0.00369141, -0.000410156, 0.000820312, 0.00164062, 0.134551, 0.207943, 9.82468, -2.50244, 0.518799, 0, 21.619, 92213.3
4423, 0.000410156, 0.000410156, -0.000410156, 0.00205078, 0.124766, 0.212835, 9.79043, -2.50244, 0.473022, 0.0305176, 21.6212, 92213.6
4433, -0.000410156, 0.000820312, 0.000820312, 0.00328125, 0.129658, 0.207943, 9.75618, -2.28882, -0.106812, 0.0610352, 21.6205, 92213.5
4443, -0.000410156, 0.00205078, -0.00123047, 0.00328125, 0.139444, 0.183479, 9.72682, 3.90625, -0.671387, 0.0610352, 21.6155, 92214.2
4453, 0.000410156, 0.00205078, -0.00123047, 0.00205078, 0.156569, 0.195711, 9.73661, 3.23486, -0.549316, 0.0457764, 21.6046, 92212.8
4463, 0.00123047, -0.000410156, -0.00164062, 0.00246094, 0.154122, 0.237299, 9.86382, 0.610352, -0.0762939, -0.0305176, 21.6205, 92214.3
4473, 0, 0.00205078, 0.00205078, 0.00123047, 0.168801, 0.222621, 9.82468, 0.610352, -0.137329, 0.0152588, 21.6096, 92213.9
4493, 0.00205078, 0.00164062, 0.00123047, 0.00164062, 0.195711, 0.198157, 9.79532, 1.7395, -0.289917, 0.0610352, 21.6144, 92213.4
4503, 0.00164062, 0.00164062, 0.00123047, 0.00328125, 0.198157, 0.220175, 9.83936, 0.137329, 0.106812, 0.0610352, 21.6254, 92214
4513, 0.00287109, 0, 0, 0.00164062, 0.212835, 0.212835, 9.83202, -1.0376, 0.228882, 0.0915527, 21.6216, 92213.6
4523, 0, 0, 0, 0.000410156, 0.205496, 0.200604, 9.7733, -1.297, 0.167847, 0.0152588, 21.6171, 92214
4533, 0.00205078, 0.00123047, 0.00205078, 0.000410156, 0.200604, 0.20305, 9.76841, -1.19019, 0.289917, 0.0610352, 21.6165, 92214.1
4543, 0.00205078, -0.000820312, 0.000410156, 0.000410156, 0.195711, 0.188372, 9.79043, 0.396728, -0.0457764, 0.0152588, 21.6109, 92213
4553, 0.00328125, 0.00123047, 0.000410156, 0.000820312, 0.198157, 0.183479, 9.78309, 0.717163, -0.0305176, 0, 21.6148, 92213.7
4563, 0.00410156, 0.00123047, 0.000410156, 0.00205078, 0.139444, 0.190818, 9.81245, -1.86157, 0.0915527, -11.0321, 21.6297, 92213
4583, 0, -0.000820312, 0.000820312, 0.00164062, -2.69592, 0.0709451, 10.04, -1.9989, -0.778198, -19.0735, 21.619, 92214
4593, 0, 0.00205078, 0.000820312, 0.00164062, -0.247085, -0.905162, 9.61918, -12.619, -1.38855, -18.1885, 21.63, 92214.5
4603, -0.00123047, 0.00205078, 0.00287109, 0.00246094, 2.59317, 0.00489277, 9.29137, -9.50623, 2.54822, -11.0168, 21.6145, 92213.5
4613, 0.00205078, 0.00205078, 0.00287109, 0.00287109, 1.85925, 1.57302, 10.2675, -7.44629, -14.7095, -2.7771, 21.624, 92213.4
4623, 0.00328125, 0, 0.000410156, 0.000410156, -0.0244638, -0.305798, 9.82957, -9.82666, -10.5438, -3.08228, 21.6103, 92213.7
4633, 0.00123047, -0.000410156, 0.00328125, 0.00123047, 0.680095, -0.308244, 9.63631, -8.86536, -15.2893, 2.22778, 21.612, 92213.6
4643, 0.00246094, 0.00164062, 0.00205078, 0.00287109, 1.16693, -1.19628, 11.2534, -13.5803, -2.65503, 0.640869, 21.6309, 92214
4663, 0.00246094, -0.000410156, -0.000820312, 0.00123047, 0.195711, -0.567561, 9.4357, -29.9988, 3.14331, 3.96728, 21.624, 92213.2
4673, 0.00287109, -0.00164062, 0.000410156, -0.000410156, 0.296012, 0.31803, 9.7733, -17.1356, 15.5029, 3.15857, 21.6196, 92213.5
4683, 0.00246094, 0.00205078, 0.00123047, 0.00205078, -0.410993, 0.780397, 9.63875, -10.1929, 9.53674, -2.9602, 21.627, 92213.7
4693, 0.000820312, 0.000410156, 0.00205078, 0.00328125, -0.763272, 0.66297, 10.0008, -11.3525, 10.7574, -5.06592, 21.6133, 92213.8
4703, 0.000820312, -0.000820312, 0.00164062, 0.00328125, -0.48683, 1.03482, 10.1916, -11.673, 11.2152, -7.79724, 21.623, 92213.6
4713, 0.00287109, -0.000820312, 0.00164062, 0.00123047, -0.105195, 1.01036, 10.2112, -9.56726, 5.92041, -8.22449, 21.6219, 92213.7
4723, 0.00246094, -0.000410156, 0.00246094, 0.00328125, -0.00978554, 0.684988, 10.4461, -9.50623, 0.976562, -7.38525, 21.6144, 92214
4733, 0.00164062, -0.00164062, 0.00123047, 0.00246094, 0.467259, 0.315584, 10.4632, -13.0157, -1.84631, -4.98962, 21.604, 92213.7
4753, 0.00246094, 0.00123047, -0.00205078, 0.00164062, 0.0758379, 0.234853, 10.3727, -20.401, -4.5166, -4.76074, 21.6085, 92214.1
4763, 0.00164062, -0.000410156, 0.00164062, 0.00328125, -0.0342494, 0.00733915, 10.4558, -23.9868, -1.87683, -4.10461, 21.6201, 92214.1
4773, 0.00205078, -0.000410156, 0.00164062, 0.00369141, 0.366958, -0.261763, 10.2552, -25.8026, -1.80054, -2.09045, 21.6257, 92213.2
4783, 0.00246094, -0.000820312, 0.00205078, 0.00246094, 0.934519, -0.308244, 11.0968, -30.1056, 1.7395, 4.27246, 21.6187, 92214.2
4793, 0, -0.00164062, 0, 0.00205078, 1.84947, -0.396314, 11.8845, -42.3584, 8.17871, 13.9618, 21.6318, 92213.7
4803, 0.000410156, 0.00123047, 0.000820312, 0.00205078, 2.11123, -0.163908, 11.7696, -53.833, 4.74548, 23.6664, 21.6152, 92213.5
4813, 0.000410156, 0.00123047, 0.00246094, 0.000410156, 1.72715, 0.638506, 11.405, -59.5398, -8.20923, 30.4871, 21.6182, 92213.4
4833, 0.00205078, 0.00164062, 0, 0.00287109, -0.420778, 0.347387, 11.0919, -66.7572, -22.2626, 25.8789, 21.6192, 92213.6
4843, 0.00123047, 0.000410156, 0.00205078, 0.00287109, -1.43358, -0.415885, 11.2387, -72.7997, -18.1732, 14.801, 21.6113, 92213.2
4853, 0, -0.00164062, 0.00123047, 0.00328125, -2.32651, -1.73938, 10.8644, -77.4536, -7.5531, -1.38855, 21.6204, 92213.6
4863, 0, 0.00123047, 0, 0.00328125, -3.0433, -2.27514, 10.6638, -75.3632, 9.41467, -15.4114, 21.6168, 92213.5
4873, -0.000410156, 0.00123047, 0, 0, -2.62986, -1.91063, 11.2656, -75.3174, 34.5917, -28.7476, 21.6193, 92213
4883, 0.00123047, -0.000410156, 0.000410156, 0.00164062, -1.61217, -1.80788, 10.473, -74.0204, 59.1888, -35.5988, 21.6221, 92213.1
4893, 0.00205078, 0.00123047, 0.00164062, 0.00246094, 0.628721, -2.41947, 8.66754, -60.379, 70.9686, -31.311, 21.6277, 92213
4903, 0.00164062, 0.000410156, 0.00123047, 0.00287109, 1.41646, -3.03352, 7.19482, -40.7867, 68.3441, -26.062, 21.6192, 92213.1
4923, 0.00164062, 0, 0, 0.00123047, 0.45992, -2.16505, 7.41744, -37.796, 63.8885, -20.9808, 21.6272, 92213.1
4933, 0.000410156, 0.00123047, -0.000820312, 0.00123047, 1.69534, -1.49719, 7.99968, -47.3022, 56.2592, -11.7645, 21.6176, 92213.5
4943, 0.00328125, 0, 0.000820312, 0.000820312, 2.22866, -0.797521, 8.66999, -52.6428, 33.1116, -1.66321, 21.6258, 92213.3
4953, 0.00205078, -0.00287109, 0.00369141, 0.00246094, 1.35285, -0.976107, 8.41312, -45.8984, 12.4664, 3.64685, 21.6292, 92213.6
4963, 0.00205078, -0.000410156, 0.000820312, 0.00246094, -0.293566, -2.43415, 8.58436, -31.7383, 13.5498, 1.38855, 21.6203, 92213.4
4973, 0.00164062, 0.000820312, 0.00164062, 0, -1.76874, -3.16562, 8.50852, -21.6675, 33.5846, -5.53894, 21.6177, 92213.1
4983, 0.00205078, 0.000820312, 0.00164062, 0.00246094, -2.49287, -2.7424, 7.67675, -14.3433, 38.3148, -12.3291, 21.6299, 92212.8
5003, 0.00287109, 0, 0.00164062, 0.00328125, 0.0758379, -2.76686, 6.40953, 1.31226, 8.39233, -11.5967, 21.6158, 92212.8
5013, 0.00287109, 0.00123047, 0.00123047, 0.00328125, 0.48683, -2.79866, 5.76613, 5.41687, -19.7906, -8.27026, 21.6151, 92213.1
5023, 0.00287109, -0.00287109, 0.00123047, 0.00246094, 0.462367, -2.37055, 5.07625, 17.0441, -62.9883, 1.28174, 21.6323, 92213.7
5033, 0.000820312, -0.00287109, 0.00123047, 0.00246094, 2.18707, -1.48985, 7.25842, 21.1029, -103.134, 11.7798, 21.6248, 92213.3
5043, 0.00205078, -0.000820312, 0, 0.000820312, 0.92718, -1.30637, 9.07609, 1.17493, -124.283, 19.928, 21.6235, 92213.2
5053, 0.00205078, 0.000410156, 0.00205078, -0.00123047, 0.452581, -1.28191, 10.3996, -17.1356, -124.573, 24.353, 21.6323, 92212.9
5063, 0.00205078, -0.00328125, 0.00123047, -0.000410156, -0.139444, -1.41401, 11.0625, -22.2168, -124.847, 25.2686, 21.6361, 92213.1
5073, 0.00205078, 0.00205078, 0, -0.000410156, -1.19628, -2.15282, 11.3194, -19.8212, -114.182, 20.7825, 21.6213, 92213.1
5093, -0.000820312, -0.000410156, 0.00246094, -0.000410156, -1.07152, -2.75707, 7.69143, 3.98254, -107.529, 2.16675, 21.6288, 92214
5103, 0.00164062, -0.00205078, 0.000820312, 0.000410156, -2.75463, -3.35399, 10.7103, -13.092, -98.0377, -13.2599, 21.6309, 92213
5113, 0.00164062, 0.00123047, 0.00123047, 0.00246094, -1.5926, -3.41026, 10.2968, -34.0118, -22.3389, -25.1312, 21.6291, 92213.3
5123, 0.00164062, -0.00164062, 0.00164062, 0.00246094, 0.437903, -2.10878, 9.54334, -13.5345, 45.99, -25.0702, 21.6277, 92213.1
5133, 0.00205078, -0.00164062, 0.00164062, 0.000820312, 1.16203, -2.90141, 9.69502, 17.4561, 58.1665, -27.4353, 21.6236, 92213.5
5143, 0.00123047, 0.000820312, 0.00164062, 0.000820312, 3.28794, -2.98214, 9.14948, 36.8805, 1.14441, -25.4211, 21.6306, 92213.5
5153, 0.00287109, 0.000410156, 0.00164062, 0.00123047, 4.5674, -2.24823, 9.42836, 33.9966, -72.1893, -16.6321, 21.6253, 92213.2
5173, 0.00410156, 0.00123047, 0.00164062, 0.00328125, 3.38824, -0.34494, 9.68768, -30.4718, -132.08, 12.558, 21.6302, 92213.4
5183, 0, 0.000410156, -0.000410156, 0.000820312, 3.26837, -1.14735, 9.80755, -47.3633, -144.104, 21.6827, 21.6208, 92213.8
5193, 0.00410156, 0.000410156, -0.000410156, 0.000820312, 2.78154, -0.410993, 10.4436, -52.5207, -143.417, 32.8674, 21.6329, 92213.4
5203, 0.00246094, 0.00164062, -0.000410156, -0.000410156, 2.47574, -1.10087, 9.84914, -49.118, -150.818, 37.796, 21.6157, 92213
5213, -0.000820312, 0, 0.00123047, 0.00205078, 1.56569, -3.09712, 11.7867, -44.2505, -137.726, 46.1121, 21.6258, 92213.3
5223, 0.00205078, -0.000820312, 0.000410156, 0.00205078, -0.0195711, -3.29283, 10.5782, -26.2604, 13.8855, 33.7219, 21.6241, 92213.4
5233, 0.00205078, 0.000410156, 0.000410156, 0.00123047, 1.34551, -2.20664, 6.48047, 73.7457, 135.071, 28.4271, 21.6224, 92213.3
5243, 0.000410156, 0.000410156, 0.000410156, 0.00205078, 2.39501, -2.7057, 7.26821, 112.106, 154.938, 21.6522, 21.6077, 92213.6
5263, 0.00164062, 0.00123047, 0.000820312, 0.000410156, 1.29658, -3.06043, 10.0742, 39.6271, 105.469, 29.8004, 21.6148, 92213.6
5273, 0.000820312, -0.00287109, 0.00246094, 0.00328125, 0.325369, -2.60295, 8.68466, 5.00488, 21.2555, 25.2991, 21.6228, 92213.6
5283, 0.000820312, -0.000410156, 0.00123047, 0.00328125, -1.03727, -2.07453, 9.99348, -8.8501, -60.8826, 13.443, 21.6137, 92213.9
5293, 0.00205078, -0.000410156, 0.00123047, 0.000410156, -0.785289, -2.07453, 11.1506, -21.5759, -89.0503, 1.75476, 21.6214, 92213
5303, 0, -0.00123047, 0.00246094, -0.000410156, 1.00302, -2.86716, 10.4094, -25.7568, -79.7729, -4.66919, 21.627, 92213.4
5313, 0.00164062, 0.000820312, 0.00164062, 0, 3.15828, -3.43717, 9.19351, -13.5956, -63.0341, -3.50952, 21.6246, 92213.7
5323, 0.00369141, -0.00123047, 0.00205078, 0.000410156, 4.01941, -3.32464, 9.3721, 2.60925, -42.5415, 5.15747, 21.6259, 92213.4
5343, 0.00502441, -0.000410156, 0.00287109, 0.000820312, 6.65416, -0.119873, 11.8381, 0.900268, 41.275, 27.1759, 21.6324, 92213.5
5353, 0.00246094, 0.00246094, 0, 0.00287109, -0.14189, -0.829324, 9.38188, 10.2386, 84.6558, 36.5906, 21.6327, 92213.3
5363, 0.00164062, 0, 0.000820312, -0.000410156, -1.50697, -2.04273, 9.52133, 27.1454, 67.2455, 27.7405, 21.6224, 92213.4
5373, 0.00328125, -0.000820312, 0.000410156, 0.00205078, 0.337601, -2.59317, 9.64365, 20.5383, 42.4805, 13.2751, 21.6249, 92213.3
5383, 0.00328125, 0.000820312, 0.00543457, 0.00205078, 0.442796, -2.83047, 9.3721, 5.44739, 24.1241, 9.90295, 21.6315, 92213.1
5393, 0.000820312, 0.000820312, 0.00543457, 0.00164062, 0.54799, -2.61763, 9.63141, -9.84192, 10.8643, 4.73022, 21.6174, 92212.4
5403, 0.00328125, -0.000410156, 0.000410156, 0.00123047, 0.687434, -2.38522, 10.2161, -17.5323, 17.2882, 1.89209, 21.6184, 92213.4
5413, 0.00287109, 0, 0.00205078, 0.000410156, 0.122319, -2.10389, 8.77518, -2.85339, 45.8374, -2.48718, 21.6357, 92213.2
5433, 0.00205078, 0.00164062, -0.000410156, 0.00123047, 0.697219, -1.14735, 9.13969, 57.312, 135.376, -5.41687, 21.6187, 92213.8
5443, 0.00205078, 0.00123047, 0.000410156, 0.00205078, 1.02993, -1.10087, 9.29381, 59.1431, 138.55, -4.2572, 21.6291, 92213.3
5453, 0.00205078, 0.00123047, 0.000410156, 0.00246094, 0.924733, -1.7247, 8.98068, 53.5583, 124.512, -1.60217, 21.6295, 92212.7
5463, -0.000410156, 0, 0.000410156, 0.00123047, 0.702112, -2.08187, 9.40635, 44.2352, 107.895, 0.640869, 21.6259, 92214
5473, 0.00246094, -0.00164062, 0.000820312, 0.00205078, 0.550436, -1.99136, 9.18617, 36.3922, 101.532, 2.76184, 21.6214, 92213.4
5483, 0.00246094, 0.00205078, 0.00205078, 0.00205078, 0.00489277, -1.55101, 8.66999, 38.6353, 95.5658, 3.43323, 21.6284, 92213.7
5493, 0.00246094, 0.00123047, 0.000410156, -0.000410156, -0.741254, -1.02993, 8.4229, 45.517, 84.0607, 2.68555, 21.6265, 92213.2
5513, -0.000820312, 0.00123047, 0.000820312, 0.00246094, -0.254424, -0.139444, 10.0131, 35.2478, 28.3813, 1.37329, 21.615, 92213.2
5523, 0.00287109, 0.00123047, 0.00164062, 0.00164062, 0.0146783, -1.74183, 10.0864, -0.442505, -38.7268, -4.5929, 21.6192, 92213.6
5533, 0.00410156, 0.000820312, 0.000820312, 0.00451172, -0.273995, -2.14059, 9.2033, -11.0779, -52.5055, -5.58472, 21.6258, 92213.4
5543, 0.00410156, -0.000410156, -0.00164062, 0.00451172, -0.384082, -1.28435, 9.57025, -5.46265, -43.5028, -6.39343, 21.6242, 92213.2
5553, 0.00451172, -0.000410156, -0.00164062, 0.00205078, -0.166354, -1.12289, 9.95434, 0.88501, -37.8723, -5.12695, 21.6194, 92213
5563, 0.00205078, 0.000820312, 0.000820312, 0.000410156, -0.0171247, -1.31371, 10.2699, 3.67737, -33.2794, -4.2572, 21.6256, 92213.5
5573, 0.00287109, 0, 0.00369141, 0.00246094, 0.665416, -2.41213, 10.7641, -0.823975, -31.6162, -1.93787, 21.6335, 92213.5
5583, 0.00246094, -0.000410156, 0.00451172, 0.00164062, 0.643399, -3.56194, 10.2699, -8.98743, -30.4871, -0.579834, 21.6268, 92213.3
5603, 0.000410156, -0.000410156, 0.000820312, 0.00205078, -0.760825, -0.477045, 9.94944, 4.79126, -10.0555, 0.976562, 21.6306, 92213.2
5613, 0.00164062, 0.00205078, 0, 0.000410156, -1.21096, -0.89293, 9.62407, 9.70459, -3.479, -2.36511, 21.6342, 92212.8
5623, 0.00123047, 0.000410156, 0.00246094, 0.00287109, -1.06418, -1.07886, 9.56536, 8.95691, -1.35803, -7.72095, 21.6284, 92212.9
5633, 0.000820312, -0.000410156, 0.00246094, 0.000410156, -0.540651, -1.20607, 9.51643, 5.61523, 1.92261, -11.8103, 21.6266, 92213.7
5643, 0.00123047, 0.000820312, 0, 0.000410156, -0.110087, -1.4874, 9.49931, 5.23376, 6.92749, -13.8092, 21.6282, 92213
5653, 0.00123047, 0.000820312, 0.000820312, 0, 0.261763, -1.56569, 9.72438, 6.95801, 9.00269, -13.977, 21.6335, 92213.1
5663, 0.00246094, 0.000820312, 0.000820312, 0.00287109, 0.606703, -1.64397, 9.79532, 8.04138, 6.073, -12.558, 21.6281, 92213.4
5673, 0.00410156, 0.000820312, 0.000410156, 0.00123047, 0.530865, -1.66599, 9.74395, 8.255, 0.747681, -10.7117, 21.6296, 92213.6
5693, 0.00123047, -0.000410156, -0.000820312, 0.000410156, 0.592025, -1.32594, 9.53845, 8.81958, -1.52588, -5.34058, 21.6335, 92213.6
5703, 0.00123047, -0.000410156, 0.00205078, 0.00123047, 0.340047, -1.24276, 9.55068, 7.26318, 3.11279, -2.97546, 21.6303, 92213.4
5713, 0.000410156, -0.000410156, 0.00205078, 0.000820312, 0.0366958, -1.24032, 9.47974, 7.69043, 5.34058, -1.96838, 21.6275, 92212.9
5723, 0.00205078, 0.00123047, 0, -0.000820312, 0.5749, -0.168801, 9.64365, 11.5814, 7.17163, 5.35583, 21.6303, 92212.7
5733, -0.000410156, 0.000820312, -0.000410156, 0.000410156, 0.239746, -0.844003, 9.48708, 14.9994, 14.4653, 4.08936, 21.6289, 92213.2
5743, 0.000410156, -0.000820312, 0.00123047, 0.00164062, 0, -1.34062, 9.2718, 20.1721, 22.8882, 5.78308, 21.6357, 92213.5
5753, 0.000410156, 0.00287109, -0.000820312, 0.00164062, -0.154122, -1.7247, 9.52133, 20.9045, 24.765, 5.70679, 21.6262, 92213
5773, 0, -0.000820312, 0.00164062, 0.00287109, 0.0293566, -1.55101, 10.2039, 5.59998, 0.411987, 3.64685, 21.6213, 92213.2
5783, 0.000820312, -0.000820312, -0.00123047, 0.00205078, -0.00733915, -1.2868, 10.2626, -1.11389, -20.3247, 2.85339, 21.6238, 92213.5
5793, 0, 0.000410156, 0.000820312, 0.00369141, 0.618935, -0.711898, 9.81979, -2.42615, -35.5225, 3.64685, 21.6228, 92213.5
5803, 0.00410156, 0.00328125, 0.000410156, 0.00369141, -0.102748, -0.628721, 9.74395, -2.10571, -45.2728, 5.20325, 21.6327, 92213.2
5813, 0.00410156, 0.00328125, 0.000410156, 0.00123047, -1.01036, -1.0495, 10.199, -6.94275, -38.0859, 3.58582, 21.6366, 92213.4
5823, 0.00369141, -0.00246094, 0.00164062, -0.000820312, -0.462367, -1.36019, 10.2797, -12.9089, -20.9808, 0, 21.6285, 92213.7
5833, 0.000820312, 0.000410156, 0.00164062, 0.000820312, 0.0684988, -1.36753, 10.0938, -11.6119, -11.5509, -1.58691, 21.629, 92213
5843, 0.000410156, -0.000820312, 0.000410156, 0, 0.0831771, -1.22564, 10.0277, -3.75366, -7.43103, -1.37329, 21.6199, 92213.3
5863, 0.000410156, 0.00123047, 0.00246094, -0.000410156, 0.207943, -1.06907, 9.74884, 6.3324, 2.65503, -1.32751, 21.625, 92212.8
5873, 0.00164062, 0.00123047, 0.00246094, -0.000410156, 0.34494, -1.33817, 9.60695, 3.66211, 8.46863, -0.717163, 21.6335, 92213
5883, 0.00205078, 0.00123047, 0.00123047, 0.00246094, 0.508848, -1.66843, 9.54824, 0.610352, 12.3901, 0.167847, 21.6268, 92213.1
5893, 0.00287109, 0.00123047, 0, 0.00328125, 0.709451, -1.79565, 9.89807, -0.900268, 13.1073, 1.70898, 21.6318, 92213.6
5903, 0.00164062, 0.00123047, 0.00164062, 0.00328125, 0.883145, -1.47028, 10.3458, -7.21741, 0.106812, 4.65393, 21.6252, 92213.6
5913, 0.00164062, -0.000410156, 0.00205078, 0.000410156, 0.481938, -0.780397, 10.2724, -11.4288, -16.51, 5.85937, 21.6277, 92213.2
5923, 0.00164062, -0.000410156, 0.00205078, 0.00205078, 0.276441, -0.195711, 10.4803, -12.7869, -14.2975, 9.14001, 21.6264, 92213.1
5943, 0.000410156, 0.000410156, 0.000410156, 0.00205078, -0.814646, -0.313137, 9.93232, -11.261, 3.69263, 4.97437, 21.6363, 92213.5
5953, -0.00123047, 0.00164062, 0.00164062, 0.000410156, -0.183479, -0.579793, 9.75129, -9.2926, 2.71606, 2.99072, 21.6425, 92213.2
5963, -0.00123047, 0.00123047, -0.000820312, 0.000410156, 1.05684, -0.993232, 9.47729, -8.40759, 1.67847, 4.34875, 21.6301, 92212.3
5973, 0.00246094, 0.00123047, -0.000820312, 0, 1.13512, -0.315584, 9.01003, -1.92261, -0.473022, 13.3209, 21.6501, 92212.7
5983, 0.000820312, 0.000820312, 0.000410156, 0, -0.966322, -2.3314, 9.15437, -2.38037, 12.0239, 11.7493, 21.6363, 92213.2
5993, 0.00246094, -0.000410156, 0.00164062, 0.00123047, -1.4189, -2.21398, 7.99478, -2.41089, 6.40869, 6.57654, 21.6283, 92213.2
6003, 0.00164062, 0, 0.00369141, 0.00328125, -0.72413, -2.57849, 8.0853, 5.92041, -4.18091, -1.63269, 21.6277, 92213.7
6013, 0.00205078, 0.000410156, -0.000410156, 0.00328125, 0.582239, -2.58827, 8.97578, 9.06372, -0.640869, -3.11279, 21.6348, 92213.5
6033, 0.00246094, -0.000410156, 0.00328125, 0.00123047, 0.60915, -1.29169, 10.747, 0.411987, 25.7416, 2.74658, 21.6446, 92213.3
6043, 0.00164062, 0.00123047, 0.00123047, 0.00246094, -0.181032, -1.05439, 10.3604, 3.20435, 23.0408, 4.45557, 21.6332, 92213.2
6053, 0.00164062, 0.000820312, 0.00164062, 0.00123047, -0.190818, -1.28435, 10.0669, 12.8174, 14.0228, 4.31824, 21.631, 92213.5
6063, 0.00369141, 0.000410156, 0.00246094, 0.00123047, 0.11498, -1.75161, 9.94944, 14.4348, 11.7035, 4.66919, 21.6231, 92212.8
6073, 0.00369141, -0.00287109, 0.00369141, 0.00287109, -0.0733915, -1.48251, 9.31583, 11.7493, 16.922, 4.98962, 21.6273, 92213.3
6083, 0, -0.00287109, 0.00369141, 0.00246094, -0.264209, -1.88616, 9.17394, 9.52148, 23.1476, 3.26538, 21.632, 92213.1
6093, 0.00123047, 0, 0.000410156, 0.00246094, -0.572454, -1.31615, 9.47729, 6.83594, 25.0702, 1.15967, 21.6445, 92213.2
6113, 0.000410156, 0.00164062, 0.00123047, 0.00328125, 0.435456, -0.0782843, 10.1721, 4.45557, 14.8926, 1.11389, 21.6331, 92213.2
6123, 0.000410156, -0.00164062, 0.00164062, 0.000410156, 0.396314, 0.146783, 10.4143, 3.7384, 13.1683, 4.18091, 21.6351, 92213.2
6133, 0.00287109, -0.00164062, 0.00164062, 0.00205078, 0.327815, 0.330262, 9.99348, 4.22668, 10.3912, 9.42993, 21.6246, 92213.1
6143, 0.00164062, 0.00246094, 0.00205078, 0.00205078, -0.198157, -0.278888, 9.947, 4.36401, 6.98852, 12.3901, 21.6322, 92213.5
6153, 0.00205078, 0.000410156, -0.000410156, 0.00287109, -0.457474, -1.23542, 9.7782, -0.518799, 7.53784, 12.146, 21.6282, 92212.7
6163, 0.00205078, 0, 0.00246094, 0.00287109, -0.623828, -1.55345, 9.5042, -3.78418, 4.27246, 10.025, 21.6277, 92213.5
6173, 0.00205078, -0.00123047, 0.00164062, 0.00287109, -0.611596, -1.53878, 9.69013, -6.97327, -6.5155, 7.76672, 21.639, 92213.2
6183, 0.000820312, -0.00123047, 0.00164062, 0.00246094, -0.682541, -1.27701, 9.58004, -8.5907, -15.1825, 5.21851, 21.6249, 92213.1
6203, 0.00164062, -0.00164062, 0.000410156, 0.00123047, -0.516187, -1.14491, 9.61429, -3.32642, -4.97437, 2.28882, 21.6343, 92213.4
6213, 0, -0.00123047, 0.000820312, 0.00287109, -0.530865, -1.23787, 9.58249, -2.60925, -3.23486, 0.88501, 21.6342, 92213.2
6223, 0.00123047, 0.000820312, -0.00123047, 0.00287109, -0.352279, -1.40178, 9.51643, -2.18201, -4.79126, -0.366211, 21.638, 92213.7
6233, 0.00123047, 0.000820312, -0.00123047, -0.000410156, -0.222621, -1.3871, 9.55802, -1.83105, -4.98962, -0.854492, 21.6344, 92213.2
6243, 0.000410156, -0.000410156, 0, 0.00287109, -0.310691, -1.29414, 9.58004, -1.66321, -4.80652, -1.44958, 21.6389, 92213.1
6253, 0.000820312, 0.00123047, 0.00451172, 0.00164062, -0.200604, -1.27457, 9.72193, -1.66321, -2.76184, -1.52588, 21.6299, 92212.9
6263, 0.00164062, 0.00123047, -0.000820312, 0.00123047, -0.0220175, -1.26233, 9.80021, -2.34985, -1.64795, -1.12915, 21.6275, 92213
6283, 0.00328125, 0, 0.00287109, 0.00287109, -0.127212, -1.54122, 9.71459, -0.62561, -4.94385, 0.213623, 21.6262, 92213
6293, 0.00369141, -0.00164062, 0.00287109, 0.00328125, -0.364511, -1.4874, 9.72438, 0.534058, -0.259399, 0.106812, 21.6397, 92212.9
6303, 0.00369141, 0.00123047, 0.00164062, 0.00123047, -0.464813, -1.33328, 9.64365, 1.8158, 5.20325, -1.0376, 21.637, 92213.4
6313, 0.000820312, 0.00246094, 0.000410156, 0.00451172, -0.244638, -1.31615, 9.59961, 3.70789, 7.40051, -1.70898, 21.6263, 92212.8
6323, 0, 0.000820312, -0.000410156, 0.00451172, -0.149229, -1.35285, 9.62897, 4.73022, 7.98035, -2.15149, 21.6375, 92213.6
6333, 0, 0.00123047, -0.000820312, 0.00369141, -0.0146783, -1.33817, 9.66811, 4.40979, 8.5907, -1.57166, 21.6275, 92213.5
6343, 0.00164062, 0.00123047, -0.000820312, 0.00328125, 0.00978554, -1.22564, 9.69502, 3.0365, 6.5918, -0.778198, 21.6337, 92213.3
6353, 0.00205078, 0.000820312, 0.00287109, 0.00123047, -0.0269102, -1.11555, 9.69991, 1.52588, 1.95312, 0.198364, 21.6401, 92213
6373, 0, 0, 0.00123047, 0.00205078, -0.156569, -1.07396, 9.72438, 0.0762939, -4.66919, 1.69373, 21.6297, 92213.5
6383, 0, 0.00123047, -0.000820312, 0.00205078, -0.259317, -1.01525, 9.71214, -0.610352, -6.05774, 1.8158, 21.6404, 92213.2
6393, 0, 0.00123047, -0.000820312, -0.000410156, -0.232406, -0.973661, 9.70236, -0.900268, -6.04248, 1.8158, 21.6308, 92212.9
6403, 0.000410156, 0.000410156, -0.00123047, 0.000410156, -0.207943, -0.981, 9.68524, -0.579834, -5.20325, 1.78528, 21.6296, 92213.6
6413, 0.00410156, 0.000820312, 0.00123047, 0, -0.286227, -1.02503, 9.66566, 0.396728, -2.68555, 1.75476, 21.6303, 92213.7
6423, 0.00287109, -0.00123047, 0.00123047, 0.00123047, -0.347387, -1.1131, 9.65588, 1.87683, 1.23596, 1.43433, 21.6275, 92212.7
6433, 0.00123047, 0, 0.000410156, 0.00123047, 0.337601, -1.09843, 9.63386, 2.92969, 2.92969, 2.9602, 21.6343, 92212.5
6453, 0.00246094, 0.00369141, 0.000410156, 0.00164062, -0.0587132, -1.23787, 9.43326, 8.7738, 16.9067, 6.95801, 21.6308, 92213
6463, 0.00123047, 0.000820312, 0.00123047, 0.00123047, -0.452581, -1.13757, 9.75618, 10.5743, 27.3285, 5.40161, 21.6367, 92213.5
6473, -0.000820312, 0.00246094, 0.00287109, 0.00369141, -0.60915, -1.13512, 9.89807, 7.24792, 24.0936, 3.7384, 21.642, 92213.2
6483, 0.00328125, 0.000410156, 0.00246094, 0.00369141, -0.357172, -1.10577, 10.0693, 1.31226, 5.31006, 2.79236, 21.6408, 92213.2
6493, 0.00328125, 0.000410156, 0.000820312, 0.000410156, -0.45992, -0.782843, 10.128, -3.23486, -9.90295, 1.75476, 21.629, 92213.5
6503, 0.00164062, 0.00123047, 0.000820312, 0.000410156, -0.736362, -0.525973, 10.1452, -5.34058, -12.5122, 0.869751, 21.6446, 92212.9
6513, 0.00246094, -0.000410156, 0.00123047, 0.00369141, -0.450135, -0.511294, 9.90786, -5.58472, -14.3127, 0.0915527, 21.6459, 92213.1
6523, 0.00328125, 0.000820312, 0.000820312, 0.00246094, -0.640953, -1.20117, 9.79777, -5.61523, -16.7236, -1.0376, 21.639, 92213
6543, 0.00287109, 0, 0.00369141, 0.000410156, 0.195711, -1.76629, 9.49931, -6.97327, -21.5149, -3.57056, 21.6379, 92212.8
6553, 0.00164062, 0, 0.00369141, 0.00205078, 0.0415885, -0.998125, 9.55068, -6.95801, -18.9667, -2.01416, 21.6511, 92212.9
6563, 0.00205078, 0.00123047, 0.00246094, 0.00287109, -0.205496, -0.743701, 9.50176, -5.09644, -10.5743, -0.823975, 21.6501, 92213.1
6573, 0.00287109, 0.000410156, 0, 0.00123047, -0.105195, -0.922287, 9.59717, -2.53296, -3.06702, -0.106812, 21.6349, 92213.3
6583, -0.000410156, -0.00164062, 0.00328125, 0.000820312, -0.0171247, -1.28435, 9.74639, -1.58691, 0.274658, 0.457764, 21.6426, 92212.7
6593, 0.00164062, 0.00123047, -0.00205078, 0.000820312, -0.105195, -1.46538, 9.75373, -1.80054, -0.335693, 0.335693, 21.6318, 92212.5
6603, 0.00164062, 0.00123047, -0.00205078, -0.00164062, -0.193264, -1.39444, 9.75863, -2.12097, -4.05884, -0.0305176, 21.6344, 92213.1
6623, 0.00369141, 0.000820312, 0.00246094, 0.00205078, -0.303352, -1.36264, 9.4724, -3.44849, -8.8501, -1.34277, 21.6405, 92213.5
6633, 0.00287109, -0.00164062, -0.00164062, 0, -0.031803, -1.37731, 9.49686, 3.93677, 7.76672, -0.778198, 21.6318, 92213.1
6643, 0.00328125, -0.000820312, 0.00123047, 0, 0.0660524, -1.09598, 9.80021, 5.87463, 22.6288, 0.0457764, 21.6334, 92213
6653, 0.00328125, -0.000820312, 0.00123047, 0.00287109, -0.112534, -1.0813, 9.69502, 3.63159, 16.8762, 0.457764, 21.6498, 92212.9
6663, 0.000410156, -0.000410156, 0.00123047, 0.00164062, -0.063606, -1.27212, 9.80266, 2.38037, 7.1106, 0.488281, 21.6396, 92213.2
6673, 0.00123047, 0.00287109, 0, 0.00164062, -0.00489277, -1.34306, 9.76841, 1.25122, 4.47083, 0.915527, 21.6483, 92212.8
6683, 0.00123047, 0.00164062, -0.00287109, 0, -0.171247, -1.28924, 9.66322, 2.27356, 6.19507, 1.2207, 21.6405, 92213.3
6693, 0.00502441, 0.000820312, 0, 0, -0.198157, -1.14246, 9.6779, 2.86865, 6.82068, 1.52588, 21.6303, 92212.4
6713, 0.00328125, 0.00205078, 0.000410156, -0.000820312, -0.222621, -1.24521, 9.71214, 2.28882, 5.38635, 1.09863, 21.6443, 92212.4
6723, 0.000820312, 0.00246094, 0.00123047, 0.000410156, -0.278888, -1.05684, 9.69747, 2.30408, 4.88281, 1.00708, 21.6229, 92212.3
6733, 0.00123047, 0.00164062, 0.00123047, 0.00328125, -0.247085, -0.95409, 9.69013, 2.62451, 4.68445, 1.15967, 21.6465, 92211.9
6743, 0.00410156, 0.000410156, -0.00164062, 0.00328125, -0.227514, -1.00546, 9.73416, 2.30408, 3.12805, 1.25122, 21.6499, 92212.5
6753, 0.00410156, 0.00123047, 0.000410156, 0.000410156, -0.276441, -1.04461, 9.73172, 1.40381, 2.04468, 1.28174, 21.6524, 92213.2
6763, 0.00205078, 0.00123047, 0.000410156, 0.00369141, -0.393868, -1.03971, 9.75129, 0.778198, 1.46484, 0.808716, 21.6332, 92212.2
6773, 0.00205078, -0.000820312, 0.00246094, 0.00451172, -0.52108, -1.01525, 9.75863, 0.350952, 2.39563, 0.0152588, 21.6423, 92212.8
6793, 0.00164062, 0.000820312, 0.00123047, 0.00287109, -0.369404, -1.09843, 9.75863, 1.52588, 3.25012, -1.72424, 21.6416, 92212.7
6803, 0.00164062, -0.000410156, 0.000820312, 0.00287109, -0.281334, -1.07152, 9.74884, 1.89209, 2.9602, -1.95312, 21.642, 92213.6
6813, 0.00164062, -0.000410156, 0.000820312, 0.00164062, -0.244638, -1.06418, 9.69747, 1.7395, 2.21252, -1.72424, 21.6395, 92212.8
6823, 0.000820312, 0, 0.000410156, 0.00164062, -0.195711, -1.1498, 9.65343, 0.961304, 1.25122, -1.43433, 21.6485, 92213.1
6833, 0.00205078, 0.000410156, 0, 0.00205078, -0.146783, -1.21341, 9.65833, 0.564575, 1.15967, -0.610352, 21.6584, 92213.5
6843, 0.00123047, -0.00205078, 0.000820312, 0.00205078, -0.220175, -1.2183, 9.66566, 0.228882, 1.297, -0.869751, 21.6371, 92212.6
6853, 0.00246094, 0.000410156, 0.00164062, 0.00205078, -0.293566, -1.30148, 9.69257, 0.671387, 1.72424, -0.839233, 21.6434, 92213.2
6863, 0.00246094, 0.000410156, 0.00164062, 0.00246094, -0.313137, -1.16693, 9.75129, 1.40381, 2.42615, -0.534058, 21.655, 92213
6883, 0.00164062, -0.000410156, -0.00164062, 0.00123047, -0.146783, -0.946751, 9.46751, 4.5166, 8.43811, -0.762939, 21.6463, 92213.1
6893, 0.00164062, 0, 0.00328125, 0.00246094, -0.408546, -1.81032, 9.95923, 8.5907, 22.2778, -2.31934, 21.6455, 92212.5
6903, 0.000820312, 0.00205078, 0.00164062, 0.00246094, -0.43301, -1.59015, 9.78309, 4.76074, 12.4054, -2.86865, 21.6375, 92213.2
6913, 0.000820312, 0.00205078, 0, 0.00205078, -0.381636, -0.878252, 9.78554, 4.05884, 2.65503, -1.80054, 21.6574, 92212.6
6923, 0.00205078, -0.00123047, 0, 0.00328125, -0.4061, -0.594471, 9.72438, 5.70679, 8.17871, -1.20544, 21.6465, 92212.8
6933, -0.000410156, -0.000820312, 0.00123047, 0.00328125, -0.418332, -0.763272, 9.72927, 5.46265, 10.025, -1.08337, 21.65, 92212.5
6943, 0.000820312, 0.00205078, 0.00123047, 0.00410156, -0.418332, -0.922287, 9.69257, 3.20435, 5.27954, -0.946045, 21.6504, 92213
6963, -0.000410156, 0.00164062, 0.000410156, 0.00205078, -0.37919, -0.780397, 9.69013, -0.747681, 0.183105, 0.0610352, 21.6479, 92213.2
6973, 0.000820312, 0.00164062, 0.000410156, 0.00164062, -0.420778, -0.890484, 9.7097, -1.35803, -0.88501, 0.213623, 21.649, 92212.8
6983, 0.000820312, -0.000820312, 0.000820312, 0, -0.37919, -1.14491, 9.70236, -0.915527, -2.02942, -0.0305176, 21.6515, 92212.9
6993, -0.000410156, -0.000820312, 0.00164062, 0.000410156, -0.420778, -1.26233, 9.74884, -0.732422, -1.78528, -0.38147, 21.6544, 92213
7003, 0.00164062, 0.00164062, 0.00123047, 0.000820312, -0.472152, -1.16203, 9.78064, -0.671387, -1.60217, -0.732422, 21.6452, 92212.8
7013, 0.00164062, -0.00164062, 0.00246094, 0.000820312, -0.481938, -1.02748, 9.75863, -0.427246, -2.47192, -0.701904, 21.6482, 92212.8
7023, 0.00164062, -0.00164062, 0.00246094, 0.00205078, -0.428117, -0.983446, 9.71459, -0.518799, -4.34875, -0.778198, 21.6558, 92213.2
7033, 0.00164062, 0, 0.000410156, 0.00287109, -0.452581, -1.0495, 9.67545, -0.518799, -4.13513, -0.854492, 21.6411, 92212.9
7053, 0.00123047, 0.00369141, 0.000820312, 0.00287109, -0.423224, -1.05684, 9.71704, -1.37329, -2.79236, -0.808716, 21.649, 92212.9
7063, 0.00164062, 0.000820312, 0.000410156, 0.00287109, -0.266656, -1.02993, 9.69013, -1.15967, -2.0752, -0.183105, 21.6494, 92212.6
7073, 0.00164062, 0.000820312, 0.000410156, 0.00287109, -0.298459, -1.03971, 9.673, -0.473022, -0.183105, 0.12207, 21.6545, 92212.3
7083, 0.00123047, 0.000410156, 0.00246094, 0.00205078, -0.347387, -1.03727, 9.68034, -0.0152588, 1.297, 0.274658, 21.6559, 92212.5
7093, 0.00287109, 0.00123047, 0.00164062, 0.000410156, -0.396314, -1.06907, 9.68034, -0.167847, 1.67847, -0.198364, 21.6438, 92213.2
7103, 0, -0.00164062, 0.00123047, 0.00328125, -0.359618, -1.32105, 9.7097, -0.0457764, 1.02234, -0.38147, 21.6584, 92212.5
7113, 0.000820312, 0.00246094, -0.000410156, 0.00328125, -0.31803, -1.18405, 9.73906, 0.427246, -0.0305176, -0.12207, 21.6641, 92213
7123, 0.000820312, 0.00246094, 0, 0.00287109, -0.366958, -1.0177, 9.76841, 0.518799, 0.610352, -0.0762939, 21.6566, 92213.1
7143, -0.000410156, 0.00369141, 0.00246094, 0, -0.354726, -1.08619, 9.70236, 0.915527, 1.51062, 0.137329, 21.6393, 92213.1
7153, 0.00246094, -0.000410156, 0.00543457, 0.00287109, -0.37919, -1.01525, 9.6779, 1.02234, 1.95312, 0.335693, 21.6622, 92213.6
7163, 0.000820312, -0.000820312, 0.000820312, 0.00287109, -0.435456, -0.944304, 9.69502, 0.732422, 2.22778, -0.0305176, 21.6563, 92213.2
7173, 0.000820312, -0.000820312, 0.00369141, 0.00246094, -0.533312, -0.958983, 9.7097, 0.106812, 1.08337, -0.213623, 21.6481, 92213.1
7183, 0.00246094, 0.00205078, 0.00369141, 0.00328125, -0.474599, -0.910055, 9.76597, -0.473022, -1.09863, -0.213623, 21.6665, 92213.2
7193, 0, 0.00287109, 0.000410156, 0.00123047, -0.447688, -0.868466, 9.71459, -0.595093, -2.34985, -0.0915527, 21.662, 92212.7
7203, 0.000820312, 0.00123047, 0.00164062, 0, -0.4061, -0.946751, 9.81245, -1.23596, -4.45557, -0.0152588, 21.6489, 92212.7
7223, 0.000820312, 0.000410156, 0.000820312, 0.00205078, -0.34494, -1.09109, 9.7097, -2.44141, -5.53894, 0.167847, 21.6537, 92212.5
7233, 0.000820312, 0.000410156, 0.000820312, 0.000820312, -0.322923, -1.24032, 9.69991, -2.44141, -4.56238, 0.411987, 21.6489, 92213
7243, 0.000820312, 0.00123047, -0.000820312, 0.00164062, -0.37185, -0.995678, 9.76107, -3.54004, -4.86755, 0.854492, 21.6475, 92213
7253, 0.00246094, -0.000410156, 0.00328125, 0, -0.413439, -0.731469, 9.77575, -4.98962, -3.92151, 1.83105, 21.657, 92212.7
7263, 0.00287109, -0.000820312, 0.00164062, 0.00246094, -0.349833, -0.52108, 9.87605, -6.62231, 0.152588, 3.92151, 21.644, 92213.7
7273, 0.00123047, 0.000820312, 0.000820312, 0.00246094, -0.467259, 0.0660524, 9.85648, -3.60107, 14.389, 4.776, 21.6578, 92213.2
7283, 0.00123047, 0.000820312, 0.000820312, 0.00246094, -0.616489, -0.594471, 9.7782, 0.88501, 30.9906, 3.75366, 21.6422, 92213.5
7293, 0.000820312, -0.000820312, 0.00164062, 0.00246094, -0.154122, -2.85004, 9.52133, 4.39453, 17.7612, 0.869751, 21.6383, 92213.3
7313, -0.000410156, -0.00123047, 0.00369141, 0.000410156, -0.266656, -1.88861, 9.9788, -12.0239, -29.6631, -2.71606, 21.6506, 92213.3
7323, 0.000820312, -0.00123047, -0.00287109, 0.000410156, -0.511294, -0.516187, 9.86137, -14.0381, -32.196, -2.41089, 21.6621, 92213.3
7333, 0.000820312, -0.00123047, 0.00246094, 0.000820312, -0.60915, -0.254424, 9.59961, -8.22449, -17.5476, -1.12915, 21.6422, 92212.8
7343, 0.00287109, -0.00164062, 0.00246094, 0.00246094, -0.232406, -0.704559, 9.43815, -0.198364, -0.0762939, 0.732422, 21.6545, 92213.4
7353, 0.000820312, -0.000410156, 0.00205078, 0, -0.0122319, -1.1816, 9.36231, 3.95203, 10.1166, 1.89209, 21.6515, 92212.3
7363, 0.00246094, -0.00123047, 0.00246094, 0.000820312, -0.161461, -1.24766, 9.46261, 2.44141, 9.59778, 1.98364, 21.6575, 92212.6
7373, 0.000820312, 0.00164062, 0.00123047, 0.000820312, -0.349833, -1.07641, 9.58738, -1.4801, 2.71606, 1.20544, 21.6467, 92212.5
7393, 0.00164062, 0.00123047, 0.00123047, 0.000410156, -0.452581, -1.10087, 9.78554, -2.70081, -7.91931, -0.0762939, 21.6508, 92213.1
7403, 0.00328125, -0.000820312, 0.000410156, 0.000820312, -0.366958, -1.20607, 9.70236, 5.18799, 0.366211, -1.26648, 21.6503, 92212.7
7413, 0.00123047, 0.00164062, -0.000820312, 0.00123047, -0.335155, -2.05496, 9.23021, 11.7645, 22.0795, 0.915527, 21.6465, 92212.8
7423, 0.000820312, 0, 0.00123047, 0.000410156, 0.124766, -1.31126, 9.69257, 10.1929, 28.0914, 1.23596, 21.6543, 92213.4
7433, 0.00287109, 0.00287109, 0, 0.000410156, -0.481938, -0.875805, 9.69991, 6.42395, 19.5312, 0.732422, 21.6476, 92212.1
7443, 0.00287109, 0.00287109, 0, 0.00369141, -0.621382, -0.998125, 9.77086, 5.20325, 11.6577, -0.183105, 21.6597, 92212.7
7453, 0.00205078, -0.00205078, 0, 0, -0.506402, -1.00791, 9.87116, 7.27844, 13.8855, -0.442505, 21.6444, 92213.3
7463, 0.00502441, 0.000410156, 0.00205078, 0.00205078, -0.528419, -1.24766, 9.81979, 7.67517, 14.0076, -0.717163, 21.6401, 92212.4
7483, 0.00123047, 0.00123047, 0.000410156, 0.00246094, -0.633614, -0.883145, 9.74639, 4.79126, 4.48608, -1.26648, 21.652, 92213
7493, 0.00123047, 0.00123047, 0.000410156, -0.00164062, -0.589579, -0.711898, 9.74884, 0.671387, -1.72424, -1.34277, 21.6493, 92212.6
7503, 0, -0.000820312, -0.00287109, 0.000820312, -0.579793, -0.694773, 9.75373, -2.83813, -7.36999, -1.93787, 21.6511, 92212.5
7513, 0.00123047, 0, 0.00246094, 0.00123047, -0.672756, -0.880698, 9.71948, -4.95911, -10.9558, -2.67029, 21.6478, 92213.2
7523, 0.00246094, 0, 0, 0.00246094, -0.49417, -1.10577, 9.73906, -4.5166, -12.6953, -2.2583, 21.6596, 92212.6
7533, 0.00451172, 0.00123047, 0.000410156, 0.00246094, -0.352279, -1.07396, 9.69257, -2.70081, -11.673, -1.78528, 21.6479, 92213.1
7543, 0.00451172, 0.00123047, 0.000820312, 0.00205078, -0.420778, -1.29658, 9.69013, -1.44958, -9.0332, -1.64795, 21.6496, 92213.1
7563, 0.00328125, 0.000820312, 0.000820312, 0.00164062, -0.347387, -1.20362, 9.63631, -0.488281, -5.06592, -0.778198, 21.6505, 92212.5
7573, 0.00123047, -0.000410156, 0.000820312, -0.00164062, -0.349833, -1.23053, 9.7415, -0.411987, -4.80652, -1.44958, 21.6557, 92213
7583, 0.00205078, -0.000410156, 0.00123047, -0.00164062, -0.533312, -1.18894, 9.68524, 0.549316, 1.5564, -1.77002, 21.6441, 92212.6
7593, 0.000410156, -0.000410156, 0.00164062, 0.00287109, -0.435456, -1.13757, 9.76841, 1.83105, 3.78418, -1.58691, 21.6525, 92212.9
7603, 0.000410156, 0.000820312, 0.00164062, 0.000410156, -0.43301, -1.118, 9.69747, 2.54822, 2.28882, -1.69373, 21.6567, 92212.7
7613, 0.00287109, 0.00164062, 0.00123047, 0.00246094, -0.489277, -1.05684, 9.73172, 2.22778, 0.411987, -1.69373, 21.6602, 92213.7
7623, 0.00205078, -0.000410156, 0.000820312, 0.00246094, -0.455027, -1.00302, 9.72682, 0.88501, -0.411987, -1.54114, 21.6456, 92212.4
7633, 0.00369141, -0.00164062, -0.00164062, 0.00246094, -0.327815, -1.0177, 9.71459, 0.0610352, -0.320435, -1.19019, 21.651, 92212.9
7653, 0.00287109, 0, 0.000820312, 0.000410156, -0.259317, -1.04461, 9.69747, 0.320435, -0.595093, 0.137329, 21.6542, 92213
7663, 0.000820312, 0.00205078, 0.00164062, 0.00164062, -0.234853, -1.07641, 9.68768, 1.02234, -0.0610352, 0.808716, 21.6391, 92212.8
7673, 0.00164062, 0, 0.000410156, 0.000820312, -0.332708, -1.13757, 9.71948, 1.35803, 1.17493, 0.961304, 21.6582, 92213.2
7683, 0.00164062, 0.000410156, 0, -0.000820312, -0.381636, -1.01036, 9.70481, 1.32751, 1.87683, 1.08337, 21.6462, 92213.1
7693, 0.00246094, 0.00205078, 0.000410156, -0.000820312, -0.425671, -0.900269, 9.71214, 1.4801, 1.89209, 0.88501, 21.6451, 92212.8
7703, 0.00246094, 0.00205078, 0.000410156, 0.00205078, -0.516187, -0.880698, 9.71459, 1.25122, 1.75476, 0.671387, 21.6472, 92213.5
7713, 0.00246094, 0.000410156, 0.00123047, 0, -0.54799, -0.91984, 9.74639, 0.823975, 1.70898, 0.579834, 21.6655, 92213.2
7733, 0.00123047, 0.00123047, 0.000820312, 0.000820312, -0.428117, -1.00546, 9.72438, 0.366211, -0.396728, 0.610352, 21.6471, 92212.8
7743, 0.00410156, 0.00123047, 0.00123047, 0.000820312, -0.457474, -0.985893, 9.73416, 0, -1.67847, 0.595093, 21.6641, 92213.2
7753, 0.00410156, 0.00123047, 0, 0.000820312, -0.437903, -0.988339, 9.70481, -0.427246, -2.10571, 0.656128, 21.6576, 92212.5
7763, 0, 0.000410156, 0, -0.000820312, -0.415885, -1.01036, 9.69991, -0.442505, -1.43433, 0.793457, 21.6517, 92212.9
7773, 0.00164062, -0.00164062, 0.000410156, 0.00328125, -0.430564, -1.04461, 9.71459, -0.762939, -1.80054, 0.518799, 21.6631, 92212.6
7783, 0.00205078, 0, 0.00164062, 0.00328125, -0.523526, -1.06418, 9.72682, -1.06812, -2.68555, 0.0915527, 21.6413, 92213.4
7793, 0.00369141, 0.000410156, 0, 0.00328125, -0.533312, -1.09843, 9.72927, -0.808716, -2.86865, -0.274658, 21.649, 92212.5
7803, 0.00246094, 0.000410156, 0.00246094, 0.00287109, -0.445242, -1.14002, 9.74639, -0.457764, -2.36511, -0.457764, 21.6555, 92212.5
7823, 0.00123047, -0.000820312, 0.00328125, 0.000410156, -0.386529, -1.03482, 9.68279, -1.19019, -4.37927, -0.793457, 21.6592, 92213.1
7833, 0.000820312, -0.00205078, 0.00246094, 0.00451172, -0.386529, -0.973661, 9.71704, -1.23596, -3.34167, -0.411987, 21.6592, 92213
7843, 0.000820312, 0.00164062, -0.00123047, 0.00451172, -0.442796, -1.0813, 9.75129, -1.51062, -3.05176, -0.396728, 21.6501, 92212.5
7853, 0.00164062, 0.00164062, 0.00123047, 0.00246094, -0.386529, -1.10577, 9.73416, -1.51062, -3.96728, -0.549316, 21.6496, 92212.5
7863, 0.00164062, 0.000820312, 0.00123047, 0.00328125, -0.305798, -1.1498, 9.71704, -0.793457, -3.28064, -0.396728, 21.6634, 92213.7
7873, 0.00246094, -0.000820312, 0.00164062, 0.00369141, -0.298459, -1.15469, 9.70481, -0.167847, -1.89209, -0.0152588, 21.654, 92213
7883, 0.00502441, 0.00123047, 0.000820312, 0.00205078, -0.330262, -1.07152, 9.73906, -0.366211, -1.19019, 0.152588, 21.6458, 92213.2
7903, 0.00123047, 0.00205078, 0, 0.000820312, -0.384082, -1.03237, 9.71704, -1.31226, -1.7395, 0.244141, 21.647, 92213.2
7913, 0.00123047, 0.00205078, 0, 0.00246094, -0.276441, -1.14246, 9.74395, -1.05286, -1.63269, 0.350952, 21.6646, 92212.9
7923, 0.00502441, 0.00246094, 0.00205078, 0.000820312, -0.298459, -1.07886, 9.71948, -0.534058, -1.25122, 0.701904, 21.6542, 92212.9
7933, 0.00164062, 0.00205078, 0.00164062, 0.00246094, -0.396314, -1.0813, 9.70236, -0.396728, -1.14441, 0.900268, 21.6523, 92213.2
7943, -0.000410156, 0.00205078, 0.000410156, 0.00123047, -0.413439, -1.06907, 9.68279, -0.38147, -0.228882, 0.717163, 21.6462, 92213
7953, 0.000820312, 0.000410156, 0.00246094, 0.00123047, -0.423224, -1.05439, 9.68524, -0.442505, 0.900268, 0.457764, 21.6519, 92213.1
7963, 0.000820312, 0.000410156, 0.00164062, 0.000820312, -0.376743, -1.03727, 9.6779, -0.0610352, 2.04468, 0.335693, 21.6518, 92213.2
7973, 0.00164062, 0.000820312, 0.00164062, 0.00164062, -0.366958, -1.02993, 9.68034, 0.701904, 3.38745, 0.442505, 21.6569, 92212.9
7993, -0.000820312, -0.000820312, 0.000820312, 0.00123047, -0.366958, -0.990786, 9.72682, 2.30408, 7.69043, 0.610352, 21.6611, 92212.9
8003, 0, -0.000820312, 0.00328125, 0.00123047, -0.501509, -1.06173, 9.80021, 1.00708, 7.12585, 0.305176, 21.6486, 92212.8
8013, 0.00123047, -0.000820312, -0.000820312, 0.00164062, -0.533312, -1.04216, 9.81, -0.259399, 3.60107, -0.0915527, 21.6564, 92213.3
8023, 0.00123047, -0.000410156, -0.000820312, -0.000410156, -0.550436, -1.06662, 9.80511, 0.213623, 2.15149, -0.579834, 21.6637, 92213.5
8033, 0.00123047, 0.000820312, -0.000410156, 0.00123047, -0.462367, -1.2501, 9.77575, 1.38855, 3.66211, -0.961304, 21.6646, 92212.8
8043, 0.000410156, 0.00205078, -0.000410156, 0.00205078, -0.376743, -1.24032, 9.74884, 1.40381, 1.83105, -1.37329, 21.6634, 92213.1
8053, 0.00543457, 0.00205078, 0.00287109, 0.00205078, -0.401207, -0.993232, 9.73416, 0.244141, -0.549316, -1.20544, 21.649, 92213
8073, 0.00164062, 0.00123047, 0.000410156, 0.00246094, -0.320476, -1.10332, 9.64365, -1.00708, -1.297, -0.900268, 21.6608, 92212.6
8083, 0.00164062, 0.000410156, 0.000410156, 0.00246094, -0.185925, -1.12534, 9.59961, -0.167847, 0.50354, -0.152588, 21.6598, 92212.7
8093, 0.00164062, 0.00123047, -0.000410156, 0.00246094, -0.234853, -1.24032, 9.55313, 1.52588, 4.42505, 0.701904, 21.6588, 92213
8103, 0.00451172, 0.00164062, 0.00123047, 0, -0.232406, -1.30637, 9.61429, 3.40271, 9.85718, 1.40381, 21.6542, 92212.9
8113, 0.00287109, 0.00246094, 0.000410156, 0, -0.349833, -1.13268, 9.73416, 3.46374, 12.0697, 2.02942, 21.6508, 92212.3
8123, 0.00287109, 0.00246094, 0.000410156, 0.000410156, -0.533312, -0.873359, 9.69257, 2.67029, 8.49915, 2.13623, 21.6501, 92213.1
8133, 0.00123047, 0.00287109, 0.000410156, 0.00123047, -0.653185, -0.826878, 9.78554, 2.42615, 7.20215, 1.80054, 21.6742, 92212.6
8143, 0.00451172, -0.000820312, -0.000820312, 0.00205078, -0.653185, -0.883145, 9.73416, 1.98364, 5.56946, 1.15967, 21.6703, 92212.7
8163, 0.00287109, -0.00123047, 0, 0.00123047, -0.648292, -0.856234, 9.68524, 1.34277, 3.61633, 0.305176, 21.6618, 92213.4
8173, 0.00205078, -0.00123047, 0.00123047, 0.00246094, -0.672756, -1.0128, 9.74639, 0.396728, 2.15149, -0.488281, 21.6634, 92213
8183, 0.00205078, 0.00205078, 0.00123047, 0.00164062, -0.560222, -1.0177, 9.76107, -0.640869, 0.106812, -1.0376, 21.6659, 92212.6
8193, 0.00123047, 0, -0.000820312, 0.00246094, -0.523526, -0.941858, 9.74395, -1.0376, -2.30408, -1.23596, 21.6591, 92212.6
8203, -0.00123047, 0, 0.00123047, 0.00164062, -0.48683, -1.06662, 9.68768, -0.62561, -3.82996, -1.15967, 21.6595, 92212.1
8213, -0.000820312, 0.00123047, 0.000820312, 0.00164062, -0.420778, -1.17671, 9.66322, -0.0305176, -2.67029, -1.02234, 21.6675, 92212.5
8223, -0.000410156, 0.00123047, 0.00246094, 0.00246094, -0.467259, -1.09843, 9.64365, 0.0457764, -0.808716, -0.88501, 21.6686, 92213
8243, 0.00164062, -0.000820312, 0.00164062, 0, -0.396314, -1.06907, 9.68279, 0, 1.00708, -0.38147, 21.6522, 92212.9
8253, 0.00451172, 0.000410156, 0.00123047, -0.00123047, -0.381636, -1.02503, 9.66322, 0.839233, 2.60925, 0.228882, 21.6639, 92212.8
8263, 0.00205078, 0.000820312, 0.000410156, -0.00123047, -0.440349, -0.929626, 9.59472, 2.22778, 6.40869, 1.06812, 21.6633, 92212.7
8273, 0.00164062, 0.000820312, 0.00205078, -0.00123047, -0.658077, -1.33328, 9.85404, 2.0752, 7.49206, 0.0762939, 21.6619, 92213
8283, 0.00164062, 0.00287109, 0.00205078, 0.00123047, -0.52108, -1.23542, 9.76841, -0.305176, -1.02234, -0.823975, 21.6653, 92213
8293, 0.00123047, 0.000820312, 0.000410156, -0.00123047, -0.496616, -0.985893, 9.79532, 0.38147, -2.31934, -0.88501, 21.6507, 92213
8303, 0.00246094, -0.00205078, -0.00164062, 0, -0.572454, -0.902716, 9.70481, 1.14441, -1.69373, -0.656128, 21.6671, 92212.8
8313, 0.000820312, 0.000410156, 0.00123047, 0.000410156, -0.577347, -0.939412, 9.72927, 0.396728, -3.23486, -0.717163, 21.6629, 92212.8
8333, 0.00205078, 0.000820312, 0.000410156, 0.00328125, -0.467259, -0.995678, 9.66566, -0.747681, -2.21252, -0.732422, 21.6602, 92213.5
8343, 0.00328125, 0.00246094, 0.00164062, 0.00164062, -0.445242, -1.07641, 9.69747, -0.106812, 0.350952, -0.335693, 21.6696, 92213.3
8353, 0.000820312, 0.00246094, 0.000410156, 0.00164062, -0.508848, -0.998125, 9.68279, 0.564575, 1.52588, -0.0762939, 21.666, 92213.1
8363, 0.00205078, 0.00205078, 0.00287109, 0.000820312, -0.584686, -0.971215, 9.71214, 0.823975, 1.67847, -0.0152588, 21.6645, 92213.2
8373, 0.00205078, 0.000410156, 0, 0.000820312, -0.501509, -1.02259, 9.72927, 0.579834, 1.35803, -0.152588, 21.6699, 92212.9
8383, 0.00246094, 0.000410156, -0.000820312, 0.00287109, -0.525973, -0.995678, 9.72193, 0.488281, 0.579834, -0.289917, 21.6614, 92213.2
8393, 0.00246094, 0.000820312, -0.000820312, -0.000410156, -0.530865, -0.973661, 9.74395, 0.274658, 0.793457, -0.137329, 21.657, 92212.8
8413, 0.000410156, 0.000410156, -0.000820312, 0.00287109, -0.220175, -0.721683, 9.48952, 0.457764, 0.656128, 0.701904, 21.664, 92212.5
8423, 0.00123047, 0, -0.000820312, 0.00287109, -0.795075, -1.24521, 10.1182, 2.13623, 10.6659, 0.183105, 21.6678, 92213.6
8433, 0.00287109, 0, 0.000820312, 0.00123047, -0.550436, -1.29658, 9.53601, -2.44141, -3.38745, -0.518799, 21.6717, 92212.7
8443, 0.00287109, 0, 0.000820312, 0.00328125, -0.428117, -1.01036, 9.88584, -0.137329, -3.14331, -0.900268, 21.661, 92213
8453, 0, -0.000410156, 0.00123047, 0.00451172, -0.54799, -0.924733, 9.673, 1.84631, 1.89209, -0.244141, 21.655, 92213
8463, 0.00287109, 0.000820312, -0.00164062, 0.00287109, -0.570008, -0.990786, 9.71459, 1.57166, -0.427246, -0.244141, 21.6613, 92212.7
8473, 0.00123047, -0.000410156, 0, 0.00287109, -0.506402, -0.990786, 9.69013, -0.289917, -0.854492, -0.442505, 21.6624, 92213.3
8483, -0.00123047, -0.000410156, 0.00123047, 0.00369141, -0.457474, -1.03971, 9.6412, -0.640869, 0.137329, -0.366211, 21.6595, 92212.7
8503, 0.00123047, 0.00164062, 0.000820312, 0.00328125, -0.472152, -1.06418, 9.73416, 0.823975, 2.2583, 0.213623, 21.6609, 92212.7
8513, 0.00451172, 0.000410156, 0.000410156, 0.00328125, -0.592025, -0.968768, 9.72438, 1.12915, 1.0376, 0.167847, 21.6801, 92212.4
8523, 0.00328125, -0.000820312, 0.00205078, 0.00164062, -0.577347, -0.91984, 9.71948, 1.40381, 1.93787, 0.259399, 21.6657, 92212.8
8533, 0.00410156, 0.00164062, 0, 0.00164062, -0.592025, -0.961429, 9.74884, 0.717163, 2.09045, 0.12207, 21.6681, 92212.6
8543, 0.00410156, 0.00164062, 0, 0.000820312, -0.587132, -1.02014, 9.72438, -0.518799, -0.976562, -0.335693, 21.6679, 92213.2
8553, 0.00328125, 0.000820312, 0.00205078, -0.000410156, -0.535758, -0.998125, 9.71459, -0.0915527, -0.488281, -0.305176, 21.6679, 92212.8
8563, 0.00246094, -0.000820312, 0.00205078, 0.00369141, -0.489277, -1.0128, 9.70236, 0.579834, 0.88501, -0.0305176, 21.6748, 92212.6
8573, 0.000820312, -0.000410156, 0.00287109, 0.00164062, -0.557776, -0.944304, 9.68768, 0.808716, 0.793457, 0.137329, 21.6704, 92213.1
8593, 0.00287109, 0, -0.000820312, 0.00287109, -0.52108, -0.993232, 9.71704, 0, 1.52588, 0.274658, 21.674, 92212.5
8603, 0.00287109, 0.000820312, -0.000820312, 0.00123047, -0.572454, -0.981, 9.69013, -0.366211, 1.32751, 0.305176, 21.6612, 92212.9
8613, 0.00205078, 0.00205078, 0.00246094, 0.00123047, -0.616489, -0.958983, 9.72682, -0.152588, 0.900268, 0.213623, 21.6678, 92212.5
8623, 0.00287109, -0.00164062, 0.00246094, 0, -0.501509, -1.0495, 9.72927, 0.0762939, 0.915527, 0.12207, 21.6655, 92212.8
8633, 0.00246094, -0.000820312, -0.000820312, 0.00287109, -0.540651, -1.118, 9.76107, -0.274658, -1.40381, -0.350952, 21.6673, 92213.5
8683, 0.00410156, 0.00246094, 0.000410156, 0.000820312, -0.560222, -1.0177, 9.75129, 0.0152588, -2.09045, -0.549316, 21.6616, 92212.5
8703, 0.00328125, 0.00205078, 0, 0.00287109, -0.570008, -0.998125, 9.69013, 0.839233, -1.54114, -0.579834, 21.6702, 92212.8
8713, 0.00123047, -0.00123047, 0.000820312, 0.00205078, -0.523526, -0.978554, 9.68768, 0.656128, -0.854492, -0.62561, 21.6735, 92212.8
8723, 0, 0, 0.00246094, 0.00205078, -0.540651, -0.951643, 9.68768, 0.244141, -0.488281, -0.50354, 21.661, 92213.1
8733, 0.00369141, 0, 0.00123047, 0.00246094, -0.594471, -0.89293, 9.69747, -0.106812, -0.686645, -0.457764, 21.6843, 92212.8
8743, 0.00246094, 0, -0.00123047, 0.00246094, -0.528419, -0.941858, 9.71704, -0.274658, -0.274658, -0.396728, 21.6664, 92212.7
8753, 0.00246094, 0.00123047, -0.00123047, -0.000410156, -0.501509, -0.968768, 9.72438, -0.411987, -0.686645, -0.335693, 21.6726, 92212.9
8763, 0, -0.00123047, 0.00287109, -0.000410156, -0.528419, -0.983446, 9.72682, -0.488281, -1.40381, -0.38147, 21.6739, 92212.6
8773, 0.00164062, 0.00246094, 0.000410156, 0.00123047, -0.54799, -0.951643, 9.70236, -0.396728, -1.90735, -0.320435, 21.6566, 92212.9
8793, 0.00328125, 0.00246094, -0.000410156, 0.00246094, -0.552883, -0.993232, 9.71214, -0.473022, -1.72424, -0.62561, 21.6816, 92213.3
8803, 0.00328125, 0.00246094, 0.000820312, 0.00328125, -0.511294, -1.20851, 9.74395, -0.579834, -1.78528, -1.06812, 21.6743, 92212.7
8813, 0.00328125, 0.000820312, 0.000820312, 0, -0.462367, -1.16203, 9.76841, -0.427246, -2.91443, -1.5564, 21.6705, 92213.4
8823, 0.00205078, 0, 0.00246094, 0.00164062, -0.540651, -0.914948, 9.72682, 0.396728, -3.58582, -1.57166, 21.6716, 92213
8833, 0.00123047, 0.00164062, 0.00164062, 0.000410156, -0.506402, -0.929626, 9.69013, 0.991821, -3.60107, -1.297, 21.6662, 92213.4
8843, 0.00328125, 0.000820312, 0.00205078, 0.000410156, -0.410993, -1.01525, 9.66322, 0.747681, -2.42615, -0.88501, 21.6712, 92213.6
8853, 0.00205078, 0.000820312, 0.000820312, 0.00246094, -0.408546, -1.00546, 9.66322, 0.167847, -0.335693, -0.518799, 21.6668, 92213
8873, 0.00164062, -0.00205078, 0.000410156, 0.00369141, -0.560222, -0.902716, 9.71948, -1.19019, -0.274658, 0.0762939, 21.6767, 92213
8883, 0.00287109, -0.00164062, 0.000410156, 0.00164062, -0.513741, -0.968768, 9.75618, -1.15967, -1.15967, 0.0610352, 21.6874, 92212.9
8893, 0.00205078, -0.00205078, -0.000820312, 0.00164062, -0.479491, -1.00546, 9.73906, -1.09863, -2.0752, -0.0305176, 21.6797, 92212.6
8903, 0.00164062, -0.00205078, 0.000410156, 0.00164062, -0.479491, -1.00791, 9.7097, -0.732422, -2.2583, 0.106812, 21.6747, 92212.9
8913, 0.00164062, 0.000410156, 0.000410156, 0.00123047, -0.496616, -0.985893, 9.72438, -0.88501, -2.33459, 0.183105, 21.6709, 92212.8
8923, 0.000820312, -0.00123047, 0.00287109, 0.000820312, -0.481938, -0.990786, 9.69502, -1.61743, -2.99072, 0.0610352, 21.6668, 92212.9
8933, 0.00123047, -0.00123047, -0.000410156, 0.000820312, -0.437903, -1.02993, 9.70481, -1.96838, -3.37219, 0.137329, 21.6762, 92213.2
8943, 0.00246094, 0.000410156, 0, 0.00246094, -0.425671, -1.07396, 9.71214, -1.86157, -2.83813, 0.183105, 21.6836, 92212.7
8963, 0.000820312, 0.000410156, 0.000410156, 0.00328125, -0.455027, -0.983446, 9.76107, -0.640869, -1.31226, 0.442505, 21.6759, 92212.8
8973, 0.000820312, 0, 0, 0.00328125, -0.525973, -0.949197, 9.74639, -1.58691, -2.82288, 0.320435, 21.6685, 92213.6
8983, 0.00246094, -0.00205078, 0.00205078, -0.000820312, -0.508848, -0.944304, 9.69991, -2.04468, -4.83704, 0.0457764, 21.6685, 92212.8
8993, 0.00164062, 0, 0, 0.00205078, -0.442796, -1.07396, 9.73172, -1.83105, -4.04358, -0.0915527, 21.6768, 92212.9
9003, 0.000820312, -0.00164062, 0.00205078, 0.00205078, -0.428117, -1.06173, 9.69013, -1.52588, -3.35693, -0.167847, 21.6763, 92213.3
9013, 0.00246094, -0.00164062, 0.000820312, 0.00328125, -0.447688, -0.983446, 9.70236, -1.46484, -3.14331, -0.0152588, 21.6879, 92212.5
9023, 0.00246094, -0.00164062, 0.000820312, 0.00123047, -0.428117, -1.00791, 9.70236, -1.60217, -2.94495, -0.106812, 21.6907, 92213
9043, 0.00164062, 0.000410156, 0.00123047, 0.00123047, -0.430564, -1.06662, 9.70725, -1.44958, -2.31934, -0.274658, 21.6924, 92212.2
9053, 0.000820312, 0.00164062, 0.00328125, 0.00123047, -0.31803, -1.09353, 9.65343, -0.62561, -0.701904, -0.0457764, 21.6796, 92213.1
9063, 0.000410156, 0.00164062, 0, 0.00287109, -0.29112, -1.01525, 9.6779, 1.26648, 3.72314, 0.579834, 21.6846, 92213.6
9073, 0.000410156, -0.000410156, 0, 0.00328125, -0.435456, -0.951643, 9.69013, 1.77002, 7.44629, 1.35803, 21.6797, 92212.9
9083, 0.00205078, 0, -0.000820312, 0.00123047, -0.552883, -1.09843, 9.79777, -0.793457, 3.82996, 0.701904, 21.6713, 92212.8
9093, 0.00205078, 0.00164062, -0.000410156, 0.00205078, -0.428117, -1.06662, 9.71704, -1.70898, -1.49536, 0.183105, 21.6884, 92212.9
9103, 0.000410156, 0.00451172, 0.00287109, 0.00205078, -0.374297, -1.05928, 9.71214, 0.183105, 1.70898, 0.610352, 21.6701, 92213.8
9113, 0.00123047, 0.00451172, 0, 0.000820312, -0.386529, -0.985893, 9.6779, 1.57166, 3.98254, 1.11389, 21.6691, 92212.8
9133, 0.00164062, 0.00205078, 0.00164062, 0.00451172, -0.313137, -0.464813, 9.41858, 7.58362, 24.0478, 6.14929, 21.6835, 92212.9
9143, 0.00287109, -0.000820312, 0.00328125, 0.00451172, -1.17182, -1.07396, 9.81489, 5.92041, 36.8347, 6.98852, 21.6892, 92213.4
9153, 0.00164062, -0.000820312, 0.000820312, 0.00164062, -0.538204, -1.17426, 9.79777, -5.49316, 10.6812, 4.28772, 21.6774, 92213
9163, 0.000820312, -0.000820312, 0.000410156, 0.00164062, -0.645845, -1.54367, 10.2699, -5.90515, -2.18201, -0.701904, 21.6772, 92213.3
9173, 0.00123047, -0.000820312, 0.000410156, 0.000820312, -0.418332, -1.12778, 9.78798, -2.7771, -6.74438, 0.778198, 21.6855, 92213.4
9183, 0.00123047, 0.00287109, 0.000820312, 0.000820312, -0.604257, -0.834217, 9.81245, 2.73132, -7.06482, 1.38855, 21.6806, 92212.9
9193, 0, 0, 0, 0.00246094, -0.49417, -0.760825, 9.56781, 2.28882, -2.73132, 2.12097, 21.6864, 92213.4
9203, 0.00205078, 0.000410156, 0, 0.00164062, -0.709451, -0.802414, 9.45527, -0.686645, 3.61633, 2.80762, 21.6813, 92213
9223, 0.00205078, 0, 0.00123047, 0.00369141, -0.530865, -1.05439, 9.69013, -9.20105, -8.5907, -0.0152588, 21.6787, 92212.7
9233, 0.00205078, 0.00328125, 0.00123047, 0.00123047, -0.354726, -1.07641, 9.78309, -3.92151, -5.11169, 1.54114, 21.6768, 92212.9
9243, 0.00205078, -0.000410156, 0.00205078, 0.00369141, -0.384082, -1.60238, 9.80266, 1.57166, 2.86865, 2.28882, 21.693, 92213.2
9253, 0.000820312, 0.00123047, 0.000820312, 0.00410156, -0.579793, -1.45315, 9.72927, 0.869751, -0.0915527, 1.7395, 21.6826, 92213.3
9263, 0.00164062, -0.000410156, 0.000410156, 0.00410156, -0.675202, -1.00057, 9.72927, -2.34985, -9.20105, 0.473022, 21.6784, 92213
9273, 0.00451172, -0.000410156, 0.000410156, 0.00246094, -0.501509, -0.721683, 9.54824, -4.5166, -13.9465, 0.305176, 21.6794, 92213.3
9283, 0.00451172, 0.000820312, 0.000410156, 0.00328125, -0.386529, -0.853788, 9.54824, -1.87683, -6.62231, 1.43433, 21.6812, 92213.3
9303, 0.00246094, -0.000820312, 0.00164062, 0.00246094, -0.54799, -1.25989, 9.73906, -1.26648, 2.16675, 1.0376, 21.6836, 92212.8
9313, -0.000820312, 0.00246094, 0.00123047, 0.00246094, -0.54799, -1.06173, 9.79532, -3.28064, -4.86755, 0.259399, 21.6772, 92212.8
9323, 0.00205078, 0.00246094, 0.00123047, 0.00123047, -0.508848, -0.985893, 9.74395, -3.0365, -7.49206, 0.183105, 21.687, 92212.9
9333, 0.00205078, 0, 0.00123047, 0.00246094, -0.430564, -1.06173, 9.69747, -1.51062, -6.073, 0.564575, 21.6755, 92213.1
9343, 0.00246094, 0.00205078, 0.000410156, 0.00164062, -0.447688, -1.12289, 9.46506, 0.183105, -4.08936, 0.762939, 21.6755, 92213.4
9353, 0.00369141, 0, 0.00287109, 0.00123047, -0.48683, -1.29169, 9.58983, 2.79236, 6.42395, 0.671387, 21.6868, 92212.5
9363, 0.00164062, -0.000410156, 0.00123047, 0.00369141, -0.474599, -1.47028, 9.7097, 2.12097, 10.4828, -0.0762939, 21.6833, 92212.7
9373, 0.000820312, -0.000410156, 0, 0.00369141, -0.442796, -1.255, 9.76107, 0.961304, 2.82288, -0.717163, 21.6751, 92212.8
9393, 0.000820312, 0.00123047, -0.000410156, 0.00123047, -0.49417, -1.09598, 9.74395, 8.31604, 15.0146, 0.701904, 21.6884, 92212.9
9403, 0.00164062, 0.000410156, 0.000820312, 0.00287109, -0.567561, -1.22075, 9.81, 5.14221, 10.6812, 0.152588, 21.6826, 92213.3
9413, 0.00369141, -0.000410156, 0.000410156, 0.00164062, -0.592025, -0.976107, 9.72193, 2.27356, 3.66211, -0.656128, 21.6843, 92213
9423, 0, -0.000410156, 0.000410156, 0.00164062, -0.694773, -0.768165, 9.78064, 1.95312, 4.98962, -0.656128, 21.6858, 92212.8
9433, 0.00287109, 0.00123047, 0.00205078, 0.00164062, -0.753486, -0.80486, 9.77575, 1.51062, 2.28882, -0.946045, 21.6841, 92213.1
9443, 0.00287109, 0.00205078, 0.00205078, 0.00410156, -0.707005, -0.924733, 9.78309, 0.106812, -3.52478, -1.63269, 21.6824, 92212.9
9453, -0.000820312, -0.00123047, 0.00123047, 0.000410156, -0.577347, -1.02014, 9.72927, -1.20544, -7.44629, -2.12097, 21.6824, 92213.5
9473, 0.00328125, 0.00123047, 0, 0.00451172, -0.540651, -1.10821, 9.77575, -2.04468, -7.44629, -2.34985, 21.6875, 92213.2
9483, 0.00205078, 0.00123047, -0.00328125, 0.00328125, -0.43301, -1.12534, 9.74395, -2.56348, -8.17871, -2.13623, 21.6881, 92213.6
9493, 0.00205078, 0.00328125, -0.00328125, 0.00205078, -0.418332, -1.19628, 9.71948, -1.77002, -7.84302, -1.98364, 21.6902, 92212.7
9503, 0.00328125, 0.00205078, 0.00123047, 0.000410156, -0.388975, -1.20607, 9.68768, -0.717163, -6.21033, -1.7395, 21.6827, 92213.3
9513, 0.00164062, -0.000410156, 0.00164062, 0.000410156, -0.388975, -1.10821, 9.66566, -0.0610352, -5.17273, -1.46484, 21.6943, 92213.1
9523, 0.00123047, -0.000410156, 0.00123047, 0.000410156, -0.359618, -1.03971, 9.62407, 0.305176, -3.58582, -0.976562, 21.6849, 92213.1
9533, 0.00287109, -0.000410156, 0.00164062, 0.00205078, -0.48683, -0.890484, 9.6779, 3.60107, 6.56128, 0.991821, 21.6824, 92213
9543, 0.00287109, 0.00123047, 0.00164062, 0.000820312, -0.552883, -1.44337, 9.81, -1.43433, 2.63977, -0.549316, 21.6906, 92212.8
9563, 0.00246094, 0.000820312, 0.000410156, 0.00205078, -0.528419, -0.905162, 9.78798, -0.244141, -4.2572, -0.717163, 21.6951, 92212.8
9573, 0.00205078, 0.00246094, 0.00205078, 0.00205078, -0.388975, -0.232406, 9.08587, 6.71387, 3.05176, 2.13623, 21.6772, 92213.8
9583, 0.00502441, 0.00246094, 0.00123047, 0.00205078, -0.48683, -1.25744, 9.79288, 1.69373, 9.84192, 0.62561, 21.6931, 92213.1
9593, 0.00164062, 0.00164062, 0.00123047, 0.00123047, -0.388975, -1.28435, 9.72927, -1.61743, -0.900268, -0.534058, 21.6841, 92213.3
9603, 0.00164062, -0.000820312, 0.000820312, 0.00328125, -0.391421, -0.716791, 9.36476, -0.88501, 4.73022, 1.08337, 21.6931, 92213
9613, 0, 0.00246094, 0.000820312, 0.00123047, -0.665416, -1.3553, 10.199, -1.19019, 4.63867, 0.12207, 21.699, 92213
9623, 0.00369141, 0.000820312, -0.00123047, 0.00164062, -0.489277, -0.939412, 9.62652, -2.45667, -14.3585, -1.02234, 21.6783, 92213.3
9643, 0.00205078, -0.000410156, -0.00123047, 0.00246094, -0.545544, -1.21096, 9.72193, 1.57166, 8.3313, 4.3335, 21.6903, 92213.2
9653, 0.00205078, 0.00164062, -0.00123047, 0.00328125, -0.200604, 0.161461, 8.8608, 3.38745, 7.32422, 7.06482, 21.6889, 92212.9
9663, 0.00123047, 0.000410156, -0.000410156, 0.000410156, -0.584686, -0.408546, 9.96902, 3.75366, 40.1459, 4.40979, 21.6875, 92213
9673, 0.00205078, -0.000410156, -0.00164062, 0.00287109, -0.95409, -1.49963, 9.83936, -5.49316, 21.8658, 0.762939, 21.6865, 92212.8
9683, 0.00164062, -0.000820312, 0.00164062, 0.00287109, -0.677648, -2.13814, 10.0522, -8.01086, -3.90625, -0.289917, 21.6921, 92213.1
9693, 0.00369141, -0.000820312, 0.00205078, 0.000820312, -0.403653, -1.74672, 10.2039, -3.49426, -8.78906, 0, 21.6896, 92212.8
9703, 0.00369141, -0.00164062, 0.00205078, 0.00123047, -0.670309, -0.797521, 9.87361, 1.23596, -11.5509, 0.564575, 21.6752, 92212.9
9713, 0.000820312, 0.00123047, -0.00205078, 0.000410156, -0.655631, -0.743701, 9.72193, 0.671387, -12.3749, 0.228882, 21.6886, 92213
9733, 0.00164062, 0.000410156, 0.000410156, 0.00410156, -0.452581, -1.3553, 9.51888, -6.74438, -8.39233, -0.0610352, 21.6793, 92212.2
9743, 0.00246094, 0.000410156, 0, 0.00123047, -0.445242, -1.26233, 9.59472, -5.61523, -2.89917, 0.137329, 21.6839, 92212.6
9753, 0.00246094, -0.00205078, 0, 0.00287109, -0.550436, -1.08619, 9.77575, -1.58691, 1.09863, 0.411987, 21.6877, 92213.2
9763, 0.00246094, -0.000820312, 0.00123047, 0.00205078, -0.52108, -1.00302, 9.80511, 0.854492, 0.671387, 0.320435, 21.6955, 92213.4
9773, 0.00205078, 0.00123047, -0.00123047, 0.00123047, -0.528419, -1.08864, 9.69991, 0.793457, -2.70081, 0.946045, 21.684, 92213.5
9783, 0.00205078, -0.00205078, 0.000410156, 0.00205078, -0.467259, -0.973661, 9.49442, 1.12915, -0.839233, 1.31226, 21.6836, 92212.9
9793, 0.00246094, -0.00205078, -0.000820312, 0.00205078, -0.398761, -0.932072, 9.5727, 0.0152588, 4.60815, 1.26648, 21.6881, 92213.2
9813, 0.000820312, 0.00123047, -0.000410156, 0.00369141, -0.52108, -1.31126, 9.81489, -1.87683, -3.7384, 0.457764, 21.6971, 92213.9
9823, 0.00205078, 0.00123047, 0.00164062, 0.00328125, -0.513741, -0.993232, 9.77086, -1.52588, -3.7384, 0.991821, 21.684, 92213
9833, 0.00164062, 0.00123047, -0.00164062, 0.00369141, -0.5749, -0.741254, 9.63386, 1.40381, 5.59998, 1.44958, 21.6898, 92212.5
9843, 0.00205078, 0.00123047, 0.00164062, 0.00369141, -0.567561, -1.02503, 9.58983, 3.43323, 8.23975, 1.37329, 21.679, 92213
9853, 0.000410156, 0.000410156, 0.00328125, 0.00246094, -0.530865, -1.03727, 9.56536, 2.0752, 9.64355, 0.946045, 21.6901, 92213.2
9863, 0.000410156, -0.000410156, 0.00328125, 0.00410156, -0.570008, -1.11555, 9.69013, 0.88501, 10.1166, 0.732422, 21.6923, 92213.1
9873, 0.000820312, 0.000820312, 0.000820312, 0.00410156, -0.567561, -1.16448, 9.83446, 0.50354, 5.50842, 0.305176, 21.6884, 92213.5
9883, 0.00205078, -0.00205078, 0.00205078, 0, -0.702112, -1.13512, 9.84425, 1.12915, 2.83813, -0.152588, 21.6821, 92213.5
9903, 0.00205078, 0.000410156, 0.00123047, 0.000410156, -0.481938, -1.03971, 9.68034, 4.3335, 5.98144, 0.198364, 21.6904, 92213.3
9913, 0.00205078, 0.000410156, 0.00123047, 0.00164062, -0.567561, -1.10821, 9.65833, 4.04358, 4.57764, -0.0762939, 21.6879, 92213
9923, 0.00410156, -0.00123047, 0, 0.000820312, -0.677648, -1.02014, 9.69991, 1.2207, 1.95312, -0.839233, 21.6861, 92212.8
9933, 0.00123047, 0.00123047, 0.000410156, 0.00328125, -0.611596, -1.19873, 9.73172, -0.50354, 2.04468, -0.900268, 21.6848, 92213.6
9943, 0.00328125, 0, 0.00205078, 0.00328125, -0.616489, -1.13268, 9.76107, 1.0376, 1.54114, -0.839233, 21.7008, 92212.8
9953, -0.000820312, 0, 0.00123047, 0.00287109, -0.677648, -0.946751, 9.7733, 2.97546, -0.320435, -0.961304, 21.6871, 92212.5
9963, 0.00287109, 0.000820312, 0.00123047, 0.00246094, -0.675202, -0.934519, 9.72193, 2.91443, -1.51062, -1.09863, 21.7001, 92213
9983, 0, 0.00164062, -0.00123047, 0.00164062, -0.560222, -1.07641, 9.69257, -0.0762939, -1.12915, -1.05286, 21.6894, 92213.8
9993, 0.00502441, -0.000820312, -0.000820312, 0.00164062, -0.616489, -1.0128, 9.69257, -0.50354, -0.839233, -0.930786, 21.6882, 92212.9
10003, -0.00205078, -0.000820312, 0.00164062, 0.00246094, -0.626274, -1.06662, 9.73661, 0.183105, -0.0457764, -0.656128, 21.686, 92212.9
10013, 0.00123047, 0.00205078, 0.00164062, 0.00287109, -0.567561, -1.03237, 9.70236, 1.26648, 0.152588, -0.442505, 21.6951, 92213.5
10023, 0.00123047, -0.00123047, -0.000820312, 0.00369141, -0.589579, -0.981, 9.68768, 1.84631, 0.289917, -0.12207, 21.6843, 92212.7
10033, 0.00164062, 0.000820312, 0, 0.00164062, -0.572454, -0.932072, 9.67545, 1.15967, 0, 0.137329, 21.688, 92213.5
10043, 0.000410156, 0.00123047, 0.00410156, 0.00164062, -0.601811, -0.844003, 9.66322, -0.778198, 0.213623, 0.335693, 21.6853, 92213.3
10053, 0.00410156, 0.00123047, 0.00164062, 0.00164062, -0.640953, -0.91984, 9.66566, -0.88501, 0.305176, 0.350952, 21.684, 92212.8
10073, 0.00205078, 0.00123047, 0.00123047, 0.00205078, -0.540651, -0.95409, 9.69747, -0.411987, -1.34277, 0.854492, 21.6898, 92213
10083, 0.00164062, 0.000820312, 0.00164062, 0.000410156, -0.570008, -0.86602, 9.69991, -1.06812, -2.16675, 1.25122, 21.6897, 92213.4
10093, 0.00205078, 0, 0.00164062, 0.00328125, -0.555329, -0.834217, 9.66077, -2.27356, -4.63867, 1.40381, 21.6915, 92213.4
10103, 0.00164062, 0.000410156, 0.00123047, 0.00328125, -0.506402, -0.80486, 9.673, -3.44849, -5.40161, 2.10571, 21.6705, 92212.7
10113, 0.00123047, 0.000410156, 0.000820312, 0.000410156, -0.410993, -0.829324, 9.77575, -3.61633, -5.32532, 3.38745, 21.6918, 92212.7
10123, 0.00123047, 0, 0.000820312, 0.00246094, -0.266656, -0.75104, 9.75129, 1.35803, 3.54004, 8.89587, 21.6925, 92213.3
10133, 0.000820312, -0.000410156, -0.00123047, 0.00246094, 0.159015, 0.0880698, 9.45283, 11.3525, 25.5737, 14.0533, 21.7006, 92213.9
10153, 0.00164062, 0.000820312, -0.000410156, 0.000820312, 0.0880698, -1.67333, 9.2718, 18.1122, 51.8188, 20.5078, 21.6908, 92213.2
10163, 0.00246094, 0.000820312, 0.00287109, 0.000410156, 0.132105, -1.98402, 9.08342, 18.6768, 46.3867, 23.0865, 21.689, 92212.9
10173, 0, -0.00287109, 0.00287109, 0.00164062, -0.232406, -1.60972, 9.29381, 15.1978, 37.7502, 37.262, 21.6901, 92213
10183, 0, -0.000820312, 0, 0.00246094, 3.68425, 0.0880698, 10.15, 12.4359, 44.4183, 55.4199, 21.6909, 92213.1
10193, 0.00369141, 0.000820312, 0.000410156, 0.00246094, 2.67145, 0.45992, 10.1696, 23.5291, 53.5889, 76.5076, 21.6888, 92213.1
10203, 0.00287109, -0.00123047, 0.00123047, 0.00246094, 1.36019, -0.640953, 8.96111, 38.2843, 66.8182, 82.962, 21.6867, 92213.2
10213, 0.000820312, -0.00123047, 0.00123047, 0.00205078, -1.19384, -1.69534, 9.1348, 42.8619, 82.2754, 78.3234, 21.6935, 92213
10223, 0.00328125, -0.000410156, 0.00123047, 0.00328125, -2.9748, -2.26046, 9.12991, 40.6189, 79.1626, 66.0248, 21.7016, 92213
10243, 0.00328125, -0.00164062, 0.00123047, 0.00328125, -4.09525, -1.58526, 9.41369, 24.2157, 31.7383, 37.5519, 21.6885, 92212.9
10253, 0.00328125, -0.00164062, 0.00287109, 0.00123047, -3.69893, -0.905162, 9.62407, 13.7939, 11.9781, 26.6571, 21.6976, 92213.3
10263, 0.00164062, -0.00164062, 0.00123047, 0.00123047, -3.24635, -0.0905162, 9.31583, 9.47571, -10.1166, 19.6533, 21.6974, 92213.5
10273, 0, 0.00123047, 0.00123047, 0.00164062, -2.57849, 0.670309, 9.03939, 10.6049, -33.8745, 16.7694, 21.7029, 92213.3
10283, 0, -0.000820312, -0.000820312, 0.00164062, -1.9987, 1.1131, 9.13725, 11.3525, -44.0979, 14.801, 21.6952, 92213
10293, 0.00369141, -0.00164062, -0.00123047, 0.00451172, -1.83234, 1.1865, 12.2613, 7.98035, -27.7557, 12.6038, 21.6986, 92213.1
10303, 0.00246094, 0.000410156, 0.00246094, 0.00451172, -2.3681, 1.13268, 9.27913, -0.427246, 76.004, 16.449, 21.7009, 92212.7
10323, 0.00205078, 0.00123047, 0.000820312, 0.00123047, -3.08, -0.418332, 9.40635, 27.1606, 15.1367, 13.7329, 21.6882, 92213.1
10333, 0.00205078, 0.000410156, 0.000820312, 0.00123047, -2.37055, -0.86602, 10.0497, 8.46863, 9.52148, 5.78308, 21.6898, 92213.6
10343, 0.00369141, -0.000820312, -0.000820312, 0.00205078, -1.85436, -1.255, 10.3262, -14.2212, -16.0828, -2.76184, 21.6972, 92213.7
10353, 0.000820312, 0.00123047, 0.00164062, 0.000820312, -3.33931, -1.27701, 8.70179, -14.5721, -18.9514, -10.6201, 21.6874, 92212.7
10363, 0.00164062, 0.00123047, 0.00205078, 0.000820312, -4.1295, -1.04705, 7.68654, 1.28174, -18.1274, -22.0184, 21.691, 92213.2
10373, 0.00246094, 0.00123047, 0, 0.00287109, -3.92155, -0.846449, 5.93737, 26.001, -70.9076, -30.0751, 21.6946, 92213.2
10383, 0.00205078, 0.00123047, 0, 0.00205078, -2.59561, 0.151676, 7.70122, 26.7181, -91.1255, -35.0647, 21.6866, 92212.8
10393, 0.00205078, 0.000820312, 0.000410156, -0.000820312, -1.82256, 0.858681, 9.31094, 9.35364, -123.779, -40.3595, 21.6925, 92212.9
10413, 0.000820312, 0.000820312, 0.00164062, 0.000820312, 1.39444, 0.956536, -1.12534, 36.7737, -365.753, -30.3497, 21.6933, 92213.1
10423, 0.00287109, 0.000820312, 0.00164062, 0.00369141, 1.03237, 0.956536, 21.4572, 202.499, -162.094, -4.18091, 21.7012, 92212.8
10433, 0.00205078, 0.000410156, 0.00164062, 0.00287109, 8.14157, -5.12273, -0.814646, -92.0715, 70.4651, 4.73022, 21.7029, 92213
10443, 0.00205078, 0.00123047, 0.000410156, 0.00328125, 0.195711, 1.1816, 14.4116, 57.3883, -71.5027, 5.15747, 21.6867, 92213
10453, 0.00205078, -0.000410156, 0.000820312, 0.00123047, -1.07886, -0.330262, 8.52565, -6.28662, 8.56018, 2.70081, 21.702, 92213.4
10463, 0.00369141, -0.00164062, 0.00164062, 0.00205078, -0.477045, 0.154122, 10.1207, 1.12915, -1.02234, 0.274658, 21.7101, 92213.4
10473, 0.00164062, -0.00164062, 0.00205078, 0.00205078, 0.0562668, 0.178586, 9.76352, -0.701904, 0.137329, 0.274658, 21.6969, 92213.2
10493, 0.00205078, 0.00246094, 0.000820312, 0.00164062, 0.107641, 0.168801, 9.75373, -0.0457764, 0, 0.0305176, 21.6974, 92212.9
10503, 0.000820312, -0.000410156, 0.000410156, 0.000410156, 0.127212, 0.156569, 9.78309, -0.106812, -0.0457764, 0.0610352, 21.6899, 92213.4
10513, 0.00246094, 0.000410156, 0.00164062, 0.00164062, 0.127212, 0.156569, 9.82223, -0.0457764, 0.0457764, 0.0457764, 21.6984, 92213.8
10523, 0.00287109, 0.000410156, 0.00164062, 0.00164062, 0.119873, 0.156569, 9.75863, -0.0762939, -0.0152588, 0.0915527, 21.681, 92213.5
10533, 0.00205078, 0.00123047, -0.00164062, 0.000410156, 0.112534, 0.168801, 9.83202, -0.0762939, -0.0915527, -0.0152588, 21.705, 92213.4
10543, 0.00123047, 0, -0.00164062, 0.00246094, 0.122319, 0.166354, 9.75618, 0.0152588, 0.0610352, 0.0152588, 21.6993, 92213.5
10553, 0.00123047, -0.00123047, -0.000820312, 0.00123047, 0.110087, 0.171247, 9.77086, -0.12207, 0, 0.106812, 21.7026, 92213.2
10563, 0.00287109, 0.000820312, 0.00123047, 0.00246094, 0.112534, 0.159015, 9.8467, -0.0762939, -0.0152588, 0.0305176, 21.7124, 92213.2
10583, 0.00246094, 0.00164062, -0.00123047, 0.000410156, 0.124766, 0.149229, 9.77086, -0.0610352, -0.0152588, 0.0762939, 21.6947, 92213.2
10593, 0.00123047, 0.00164062, -0.00123047, 0.000820312, 0.124766, 0.156569, 9.79777, -0.106812, -0.0457764, -0.0152588, 21.6978, 92213.2
10603, 0.00123047, -0.00246094, 0.00410156, 0.00164062, 0.129658, 0.163908, 9.81, -0.106812, 0.0457764, 0, 21.6983, 92213.6
10613, 0.00410156, 0.000820312, 0.00164062, 0.00328125, 0.124766, 0.163908, 9.81245, -0.12207, 0.0152588, 0.0152588, 21.6933, 92213.3
10623, 0.00164062, 0.000820312, 0.00287109, 0.00328125, 0.132105, 0.149229, 9.76841, 0.0152588, 0.0457764, 0.0305176, 21.6976, 92213.5
10633, 0.00246094, 0.000820312, 0, 0.00328125, 0.124766, 0.159015, 9.78798, -0.0762939, -0.0305176, 0.0305176, 21.7034, 92213.4
10643, 0.000410156, 0.00205078, 0, 0.00205078, 0.14189, 0.151676, 9.82468, -0.0915527, 0, 0.0152588, 21.7049, 92213.3
10653, 0.000410156, 0.00205078, 0.000820312, 0.000820312, 0.132105, 0.156569, 9.79777, -0.0457764, 0.0457764, 0.0457764, 21.6944, 92213.5
10673, 0.000820312, 0.000820312, -0.000410156, -0.000820312, 0.127212, 0.166354, 9.77086, -0.0152588, 0, 0, 21.7063, 92212.9
10683, 0.00328125, 0.000820312, 0.000820312, -0.000820312, 0.107641, 0.178586, 9.79532, -0.0610352, 0.0610352, 0.0610352, 21.7091, 92213.2
10693, 0.00287109, 0.00205078, 0.000820312, 0.000410156, 0.127212, 0.159015, 9.82468, -0.12207, 0.0152588, 0.0152588, 21.7109, 92213.1
10703, 0.00287109, 0.00123047, 0.000820312, 0.000820312, 0.112534, 0.17614, 9.7733, 0.0457764, 0, 0.106812, 21.7026, 92212.9
10713, 0.00123047, 0, 0.000820312, 0, 0.102748, 0.163908, 9.77086, -0.106812, 0.0305176, 0.0305176, 21.6897, 92213.1
10723, 0.000820312, 0.000820312, 0, 0.00246094, 0.124766, 0.171247, 9.78554, -0.106812, 0.0762939, 0.0915527, 21.7016, 92213.4
10733, 0.00369141, 0.000820312, 0, 0.00246094, 0.117426, 0.173693, 9.78554, -0.0762939, -0.0610352, 0.0457764, 21.7129, 92212.6
10753, 0.00246094, 0.00287109, 0.00205078, 0.000820312, 0.11498, 0.17614, 9.78798, -0.0762939, 0.0305176, 0, 21.7073, 92213.3
10763, 0.00246094, -0.000410156, -0.000820312, 0.00328125, 0.112534, 0.173693, 9.78309, -0.0762939, -0.0305176, 0, 21.6994, 92213.5
10773, 0.00328125, 0.000820312, 0, 0.00123047, 0.127212, 0.168801, 9.79777, -0.0610352, 0.0305176, 0.0610352, 21.7096, 92213
10783, 0.00369141, 0.000820312, 0.00205078, 0.00123047, 0.122319, 0.149229, 9.78554, -0.12207, -0.0305176, 0.0305176, 21.7082, 92213.5
10793, 0, 0.000820312, 0.00205078, 0.00246094, 0.112534, 0.14189, 9.69747, -0.0610352, -0.228882, -0.0152588, 21.695, 92212.7
10803, 0.00287109, -0.00287109, 0.00205078, 0.00123047, 0.132105, 0.163908, 9.74639, -0.0152588, -0.259399, -0.0457764, 21.7024, 92213.1
10813, 0.00287109, 0.000820312, 0.00164062, 0.000820312, 0.11498, 0.166354, 9.65588, 0.137329, -0.564575, 0.0305176, 21.7162, 92212.9
10823, 0.00205078, 0.000820312, -0.000410156, 0.00328125, 0.139444, 0.193264, 9.90786, -0.0305176, -0.289917, 0, 21.7056, 92213.1
10843, 0.000410156, 0.00246094, -0.00164062, 0.00328125, 0.129658, 0.129658, 9.77086, -0.106812, 0.106812, 0.0305176, 21.7065, 92213.5
10853, 0.00328125, 0.00164062, -0.00164062, 0.00123047, 0.129658, 0.139444, 9.68034, -0.0610352, 0.0152588, 0.0610352, 21.7049, 92212.4
10863, 0.00328125, -0.000410156, -0.000410156, 0.00123047, 0.136998, 0.134551, 9.73172, 0.0305176, 0, 0.0762939, 21.7086, 92213.2
10873, 0.00287109, -0.000410156, 0, 0.00246094, 0.119873, 0.134551, 9.81, 0, 0, 0.0305176, 21.7074, 92213.4
10883, 0.00328125, -0.000410156, 0.000820312, 0.00205078, 0.136998, 0.161461, 9.69257, 0.0762939, -0.0305176, -0.0152588, 21.6998, 92213.3
10893, 0.00287109, -0.000410156, 0.000410156, 0.00205078, 0.156569, 0.185925, 9.81489, 0.106812, 0.0152588, 0.0305176, 21.7021, 92213.1
10903, 0.00164062, 0.00164062, 0.000410156, 0.00123047, 0.163908, 0.181032, 9.99348, -0.106812, 0.12207, 0.0457764, 21.6974, 92213.6
10923, 0.00123047, 0, 0.00123047, 0, 0.124766, 0.134551, 9.71214, -0.0762939, 0.0610352, 0.0152588, 21.6964, 92213.9
10933, 0.00246094, -0.000410156, 0.00287109, 0.00205078, 0.110087, 0.124766, 9.69747, -0.0915527, 0.0152588, 0.0305176, 21.7014, 92212.7
10943, -0.00123047, -0.000410156, -0.000410156, 0.00205078, 0.100302, 0.139444, 9.73416, -0.0457764, 0.0610352, 0.0152588, 21.7089, 92214
10953, 0.00369141, 0.00205078, -0.000410156, 0.00328125, 0.0880698, 0.183479, 9.81245, -0.0152588, -0.106812, 0.0305176, 21.7, 92214.4
10963, -0.000410156, -0.00123047, -0.000410156, 0.00328125, 0.102748, 0.200604, 9.85159, -0.0152588, -0.167847, 0.0152588, 21.7071, 92213.3
10973, -0.000410156, 0.000820312, 0.000410156, 0.00123047, 0.102748, 0.20305, 9.75863, -0.12207, -0.0915527, -0.0457764, 21.72, 92213.7
10983, 0.00287109, 0.000820312, 0.00123047, 0.00410156, 0.105195, 0.188372, 9.78554, -0.0915527, 0, 0.0457764, 21.71, 92213.3
10993, 0.00246094, 0.00123047, -0.00205078, 0.00410156, 0.0929626, 0.173693, 9.82712, 0.0305176, 0.0152588, 0.0305176, 21.7085, 92213.5
11013, 0.00287109, 0.000820312, 0.00123047, 0.000410156, 0.119873, 0.14189, 9.79288, -0.0152588, 0.0762939, 0.152588, 21.6957, 92213.1
11023, 0.00287109, -0.000820312, 0.000410156, 0.00123047, 0.095409, 0.144337, 9.72193, -0.0457764, -0.0762939, 0.0762939, 21.7086, 92213.6
11033, 0.000410156, 0.000820312, 0, 0.00410156, 0.11498, 0.156569, 9.81, -0.0457764, 0.106812, 0.0152588, 21.7027, 92213.6
11043, 0.00164062, 0.000820312, -0.000410156, 0.00410156, 0.139444, 0.171247, 9.80021, -0.152588, 0.0915527, 0.0915527, 21.7038, 92213.4
11053, 0.00246094, 0.000820312, 0.00205078, 0.000820312, 0.129658, 0.149229, 9.75129, -0.0762939, 0, 0.0457764, 21.7101, 92213.4
11063, -0.00123047, -0.00287109, 0.00205078, -0.000410156, 0.14189, 0.139444, 9.75618, -0.12207, 0, 0.0305176, 21.7137, 92213.5
11073, -0.00123047, 0.00205078, -0.000820312, 0.00328125, 0.146783, 0.163908, 9.81489, 0.0305176, -0.0305176, 0.0457764, 21.7089, 92213.7
11093, 0.00410156, 0.00205078, 0.000820312, 0.000820312, 0.149229, 0.163908, 9.81489, -0.106812, -0.0152588, 0, 21.7029, 92213.5
11103, 0.00287109, 0.00205078, -0.000820312, 0.000820312, 0.159015, 0.163908, 9.77086, -0.0305176, -0.0457764, 0.0305176, 21.7121, 92213.1
11113, 0.000820312, 0.00123047, -0.000820312, 0.00123047, 0.136998, 0.168801, 9.7415, -0.0762939, 0.0610352, 0.0457764, 21.7041, 92213.6
11123, 0.000820312, 0, 0.00123047, 0.00123047, 0.112534, 0.156569, 9.78064, 0.0152588, 0.0305176, 0.106812, 21.7093, 92213.1
11133, 0.00287109, 0.000820312, 0.000820312, 0.00205078, 0.112534, 0.159015, 9.78309, -0.0152588, -0.0610352, 0.0915527, 21.7095, 92213.1
11143, 0.000410156, 0.000820312, 0.00123047, 0.00164062, 0.0929626, 0.185925, 9.79532, -0.0457764, -0.0610352, 0.0152588, 21.698, 92213.1
11153, 0.00287109, 0.000820312, 0, 0.00164062, 0.117426, 0.166354, 9.80511, -0.0610352, 0, -0.0762939, 21.6963, 92213.5
11163, 0.000410156, 0.00123047, 0.00164062, 0.00205078, 0.107641, 0.159015, 9.80755, -0.198364, -0.0610352, -0.0305176, 21.7037, 92213.3
11183, -0.000820312, 0.000410156, 0.00205078, 0.00164062, 0.102748, 0.181032, 9.78064, -0.0305176, 0.0457764, 0, 21.7153, 92212.9
11193, 0.00287109, 0.00123047, 0.00287109, 0.00369141, 0.117426, 0.17614, 9.74884, -0.106812, 0.0762939, 0.0915527, 21.7058, 92213.2
11203, 0.00246094, 0.00123047, -0.00123047, 0.00369141, 0.124766, 0.173693, 9.78554, -0.0762939, -0.0305176, -0.0152588, 21.7062, 92213.4
11213, 0.00287109, 0.000410156, 0.00123047, 0.00287109, 0.119873, 0.181032, 9.81489, -0.0610352, 0.0762939, 0.0457764, 21.7115, 92214
11223, 0.00287109, 0.00123047, 0.00123047, 0.00287109, 0.11498, 0.161461, 9.81489, -0.106812, 0.0762939, 0.0762939, 21.711, 92213.9
11233, 0.00287109, 0.00123047, 0.00164062, 0, 0.117426, 0.178586, 9.79288, -0.0457764, 0.0457764, 0, 21.7132, 92213.6
11243, 0.00205078, 0.00123047, 0.00246094, 0.00287109, 0.124766, 0.149229, 9.79532, -0.0457764, 0.0305176, -0.0152588, 21.7092, 92213.7
11263, 0.00205078, 0.000820312, 0, 0.00123047, 0.127212, 0.159015, 9.78309, -0.0610352, 0.0915527, 0.0762939, 21.7027, 92213.6
11273, 0.000410156, 0.00123047, 0, 0.00246094, 0.144337, 0.171247, 9.78064, -0.0610352, -0.0152588, 0, 21.7112, 92213.3
11283, 0.000410156, 0, -0.000410156, 0.00164062, 0.139444, 0.163908, 9.79532, -0.0762939, 0, 0.0152588, 21.7085, 92213.4
11293, 0, -0.00164062, 0, 0, 0.134551, 0.171247, 9.72438, -0.0457764, 0.0152588, 0.0152588, 21.7218, 92213.2
11303, 0.00369141, -0.000410156, 0, -0.000410156, 0.151676, 0.168801, 9.82712, -0.0762939, -0.0610352, 0, 21.7164, 92213.4
11313, 0.00164062, -0.000410156, 0.00164062, -0.000410156, 0.136998, 0.163908, 9.81489, -0.0305176, -0.0610352, 0.0610352, 21.7213, 92213.7
11323, 0.00164062, 0.00205078, 0.00164062, -0.000820312, 0.146783, 0.144337, 9.81489, -0.0762939, 0.0610352, 0.0457764, 21.7186, 92213.6
11333, 0.00164062, 0, 0.000410156, 0.000820312, 0.105195, 0.161461, 9.78798, -0.106812, 0.0152588, 0.0610352, 21.7074, 92213.6
11353, 0.00287109, 0.00164062, 0.000410156, 0.00451172, 0.110087, 0.144337, 9.82223, -0.0610352, 0.0457764, 0.0305176, 21.7091, 92213.2
11363, 0, 0.00164062, 0.00246094, 0.00451172, 0.100302, 0.154122, 9.79288, -0.0610352, -0.0152588, 0.0610352, 21.7084, 92212.5
11373, 0.00246094, -0.000820312, 0.000410156, 0.00246094, 0.105195, 0.173693, 9.78064, -0.0610352, -0.106812, 0.0152588, 21.7115, 92213.8
11383, 0.00123047, 0.00287109, 0.000410156, 0.00123047, 0.117426, 0.178586, 9.80755, -0.0610352, 0.0305176, 0, 21.7184, 92214
11393, 0.00123047, 0.000410156, 0.00205078, 0, 0.11498, 0.168801, 9.80755, -0.106812, -0.0762939, 0.0152588, 21.7126, 92213.2
11403, 0.00369141, 0.000410156, 0.00123047, 0, 0.122319, 0.17614, 9.79288, -0.0610352, 0, -0.0152588, 21.726, 92213.2
11413, 0.00164062, 0.000410156, 0.00246094, 0, 0.134551, 0.17614, 9.78064, -0.0762939, -0.0152588, 0.0610352, 21.7084, 92213.8
11433, 0.00246094, 0.00246094, 0.00123047, 0.00246094, 0.119873, 0.166354, 9.77086, -0.12207, 0.0610352, 0.0457764, 21.7198, 92213.8
11443, 0.00246094, 0.00123047, 0.00164062, -0.000410156, 0.139444, 0.154122, 9.81, -0.0762939, 0.0305176, 0.12207, 21.7155, 92213.6
11453, 0.00164062, -0.000410156, -0.000820312, 0, 0.134551, 0.149229, 9.79043, -0.0762939, 0.0152588, 0.0610352, 21.7109, 92213.6
11463, 0.00369141, 0.00205078, 0.000820312, 0, 0.119873, 0.166354, 9.78798, -0.0915527, -0.0305176, 0.0457764, 21.7155, 92213.7
11473, 0, 0.00205078, 0.00164062, 0.000820312, 0.122319, 0.159015, 9.81245, -0.0762939, 0.0762939, 0.0457764, 21.7189, 92213.8
11483, -0.000410156, 0.00123047, 0.00164062, 0.00287109, 0.119873, 0.151676, 9.80511, -0.0457764, 0.106812, -0.0152588, 21.7124, 92213.5
11493, -0.000410156, 0.00123047, 0.00246094, 0.00123047, 0.139444, 0.151676, 9.79288, -0.12207, 0.0457764, 0, 21.7165, 92213.5
11503, 0.00328125, 0, -0.000820312, 0.00164062, 0.110087, 0.154122, 9.78064, -0.0305176, -0.0457764, 0, 21.7208, 92213.3
11523, 0.00205078, 0.00410156, -0.000820312, 0.00287109, 0.129658, 0.173693, 9.80755, -0.0915527, -0.0457764, 0, 21.7171, 92213.2
11533, 0.00164062, 0.000820312, -0.000820312, -0.00205078, 0.134551, 0.173693, 9.78798, -0.0762939, 0.0457764, 0.0457764, 21.7118, 92213.4
11543, 0.00246094, 0.000410156, -0.000410156, 0.00164062, 0.117426, 0.154122, 9.79532, -0.0762939, 0.0305176, 0, 21.712, 92212.8
11553, 0.00246094, 0.000410156, 0.000820312, 0.00205078, 0.11498, 0.17614, 9.79777, -0.0305176, -0.0610352, -0.0152588, 21.7065, 92213.5
11563, 0.00164062, 0.00164062, -0.000820312, 0.000820312, 0.11498, 0.171247, 9.81245, 0, 0.0152588, 0.0305176, 21.7058, 92213.8
11573, 0.00205078, 0.00164062, 0.00123047, 0.000820312, 0.11498, 0.168801, 9.78554, 0.0152588, 0.0305176, -0.0152588, 21.7155, 92213.7
11583, -0.00246094, 0.00205078, -0.000410156, 0.00287109, 0.119873, 0.168801, 9.78554, -0.0915527, 0.0762939, 0.0305176, 21.7132, 92213.2
11603, 0.000820312, 0.00287109, -0.000410156, 0.00205078, 0.117426, 0.154122, 9.7782, -0.0762939, 0.0457764, 0, 21.7181, 92213.6
11613, 0.00205078, 0.000820312, -0.00123047, 0.00246094, 0.129658, 0.173693, 9.79777, -0.0152588, 0.0610352, 0.0457764, 21.7133, 92213.7
11623, 0.00123047, 0.000820312, 0.000410156, 0.00246094, 0.124766, 0.159015, 9.80266, -0.0457764, 0.0457764, 0.0457764, 21.7093, 92213.5
11633, 0.000820312, 0, 0.000410156, 0.00287109, 0.14189, 0.166354, 9.78554, 0.0152588, 0.0915527, 0.0457764, 21.7121, 92213.2
11643, 0.00164062, -0.00246094, 0.000410156, 0.00164062, 0.136998, 0.173693, 9.79532, -0.0152588, 0.12207, 0, 21.7195, 92213.4
11653, 0.00164062, -0.000410156, 0.00123047, 0.00164062, 0.127212, 0.144337, 9.79532, -0.106812, 0.0457764, 0.0762939, 21.7191, 92213.4
11663, 0.00123047, 0.00123047, 0.00246094, 0.00205078, 0.127212, 0.156569, 9.7782, -0.0457764, 0.0305176, 0.0610352, 21.7107, 92213.4
11673, 0.00287109, 0.000410156, -0.000410156, 0.00205078, 0.132105, 0.14189, 9.7782, -0.0762939, -0.0305176, 0, 21.7246, 92213.4
11693, 0.00164062, 0, -0.00123047, 0.00164062, 0.129658, 0.154122, 9.80021, -0.0762939, 0.0915527, 0.0457764, 21.7186, 92213.9
11703, 0.00164062, 0.00123047, -0.000410156, 0.00123047, 0.117426, 0.159015, 9.79043, -0.106812, 0.0305176, 0.0610352, 21.7134, 92213.8
11713, 0.00328125, 0.00123047, -0.000410156, 0.000820312, 0.132105, 0.181032, 9.79777, -0.0457764, 0.0305176, 0.0152588, 21.7225, 92213.6
11723, 0.00287109, -0.00246094, 0.000820312, 0.00246094, 0.129658, 0.154122, 9.78554, -0.106812, 0, 0.0152588, 21.7231, 92213.5
11733, 0.00287109, -0.00246094, 0.000820312, 0.00246094, 0.112534, 0.156569, 9.78554, -0.106812, 0.0305176, 0.0762939, 21.7104, 92213.5
11743, 0, 0, 0.000820312, 0.00205078, 0.119873, 0.161461, 9.78798, 0, 0, 0.0610352, 21.7213, 92213.3
11753, 0.00287109, 0.00246094, -0.000410156, 0.00369141, 0.117426, 0.156569, 9.79043, -0.0915527, -0.0457764, 0, 21.7187, 92212.9
11773, 0.00287109, 0.000820312, -0.00123047, 0.000820312, 0.117426, 0.159015, 9.80021, -0.0457764, -0.0610352, 0.0305176, 21.7136, 92213.2
11783, 0.00205078, 0.000820312, -0.000820312, 0.000820312, 0.107641, 0.161461, 9.79532, 0.0152588, -0.0610352, -0.0305176, 21.7077, 92213.2
11793, 0.00246094, 0, 0.00205078, 0.00246094, 0.124766, 0.163908, 9.80755, -0.106812, -0.0152588, 0.0457764, 21.7153, 92213.2
11803, 0.00164062, 0.000410156, 0.00205078, 0.00543457, 0.134551, 0.163908, 9.79288, -0.0457764, -0.0610352, 0.0152588, 21.7211, 92213.6
11813, 0.00164062, 0.000820312, 0, 0.000410156, 0.14189, 0.151676, 9.80266, -0.106812, 0.0457764, -0.0152588, 21.7155, 92213.5
11823, 0.00369141, -0.000820312, 0.000820312, 0.00123047, 0.127212, 0.159015, 9.78309, -0.0610352, 0.0305176, 0.0610352, 21.7272, 92213.6
11833, 0.00205078, -0.000820312, 0, 0.00123047, 0.127212, 0.159015, 9.80266, 0.0305176, 0, 0.0305176, 21.7137, 92212.8
11843, 0.00328125, -0.00123047, 0.00246094, 0, 0.136998, 0.171247, 9.80266, -0.0610352, -0.0762939, 0.0762939, 21.724, 92213.3
11863, 0.00287109, 0.00123047, 0.000410156, 0.00123047, 0.119873, 0.17614, 9.79532, -0.0915527, 0.0457764, 0.0610352, 21.7276, 92213.8
11873, 0.00328125, 0.000410156, 0, 0.00164062, 0.122319, 0.151676, 9.80266, -0.0152588, -0.0610352, 0.12207, 21.7245, 92213.5
11883, 0.00246094, 0.000410156, -0.000410156, 0.00164062, 0.129658, 0.161461, 9.79532, -0.0915527, -0.0152588, 0.0457764, 21.7187, 92213.4
11893, 0, 0.000410156, 0.00164062, 0.000820312, 0.112534, 0.168801, 9.81, -0.0915527, 0.0305176, 0, 21.722, 92213.3
11903, 0.000410156, 0.00164062, 0.00164062, 0.00246094, 0.110087, 0.156569, 9.79532, -0.0610352, -0.0762939, 0, 21.7176, 92214
11913, 0.000410156, 0.000820312, -0.00123047, 0.00164062, 0.127212, 0.14189, 9.78309, 0, 0, -0.0152588, 21.7332, 92213.6
11923, 0.000820312, 0.000820312, 0.00246094, 0.00205078, 0.129658, 0.151676, 9.78798, -0.0915527, 0.0610352, -0.0152588, 21.7316, 92213.5
11943, -0.00123047, -0.000820312, -0.00123047, 0.00164062, 0.136998, 0.171247, 9.80021, -0.0305176, 0, 0.0152588, 21.7169, 92213.6
11953, 0.00246094, 0.00123047, -0.00123047, 0.00164062, 0.132105, 0.166354, 9.80021, -0.0762939, 0.0762939, 0.0152588, 21.7275, 92213.6
11963, 0.00369141, 0.00123047, -0.000410156, 0.000410156, 0.11498, 0.183479, 9.78064, -0.0915527, 0.0152588, 0.0610352, 21.7164, 92213.4
11973, 0.00369141, 0.00164062, 0.00123047, 0.00123047, 0.119873, 0.173693, 9.79288, -0.0305176, 0, 0, 21.7392, 92213
11983, -0.000410156, 0.000820312, -0.000410156, 0.00164062, 0.127212, 0.161461, 9.78064, 0.0457764, 0.0152588, 0.0762939, 21.7379, 92213
11993, 0, 0.000820312, 0.00246094, 0.00164062, 0.124766, 0.124766, 9.81245, -0.0762939, 0, 0.0305176, 21.7443, 92213.4
12003, 0.00164062, 0.00123047, 0.000410156, 0.00205078, 0.117426, 0.14189, 9.81734, -0.0610352, -0.0152588, 0.0915527, 21.7329, 92213.8
12013, 0.00369141, 0.000410156, 0.000410156, 0.00164062, 0.129658, 0.139444, 9.79777, -0.137329, 0.0305176, 0.0610352, 21.7365, 92213.7
12033, 0, 0.00205078, 0.00164062, 0.00123047, 0.139444, 0.154122, 9.78554, -0.0457764, 0.0762939, 0.0152588, 21.726, 92213.5
12043, 0.000410156, 0.00205078, -0.00123047, 0.00123047, 0.122319, 0.161461, 9.78064, -0.106812, 0.0762939, 0.0457764, 21.7355, 92213.6
12053, 0.00410156, 0.00123047, 0.00205078, 0.00246094, 0.122319, 0.178586, 9.79288, -0.106812, -0.0152588, -0.0152588, 21.7226, 92213.4
12063, -0.000410156, 0.000410156, 0.00205078, 0.00287109, 0.139444, 0.17614, 9.78798, -0.0915527, -0.12207, 0.0762939, 21.7179, 92213.6
12073, -0.000410156, 0.000820312, -0.000410156, 0.00164062, 0.124766, 0.144337, 9.80021, -0.106812, -0.0305176, 0.0305176, 21.724, 92213.9
12083, 0.000820312, -0.00123047, 0.00164062, 0, 0.139444, 0.159015, 9.79288, -0.0305176, 0, 0.0915527, 21.7176, 92213.6
12093, 0.00328125, -0.00123047, 0.00287109, 0, 0.117426, 0.163908, 9.80021, 0.0152588, 0.0305176, 0.0305176, 21.7171, 92213.9
12103, 0.000820312, -0.000410156, -0.000410156, 0.00205078, 0.119873, 0.151676, 9.78798, -0.0762939, -0.0152588, 0.0915527, 21.7237, 92213.6
12123, 0.00328125, 0.00287109, 0.000820312, 0.00287109, 0.11498, 0.151676, 9.79532, -0.0610352, -0.0457764, 0.0610352, 21.7267, 92213.8
12133, 0, 0, 0.000410156, 0.00410156, 0.119873, 0.14189, 9.80021, -0.0610352, -0.0305176, 0.0152588, 21.7211, 92213.6
12143, 0, 0, 0.00287109, 0.00410156, 0.134551, 0.151676, 9.79777, -0.0915527, -0.0152588, 0.0305176, 21.7199, 92213.6
12153, 0.00123047, 0, 0.000410156, 0.00123047, 0.11498, 0.149229, 9.79043, -0.0762939, 0.0457764, 0.0762939, 21.7199, 92213.2
12163, 0.00246094, -0.00123047, 0.000410156, 0.00123047, 0.122319, 0.159015, 9.79043, -0.0457764, 0.0762939, -0.0457764, 21.7237, 92214
12173, 0.00287109, 0.00123047, 0.00287109, 0.00205078, 0.124766, 0.156569, 9.78798, -0.0152588, -0.0152588, 0.0610352, 21.726, 92213.5
12183, 0.00287109, -0.00164062, -0.00164062, 0.00287109, 0.136998, 0.178586, 9.78554, -0.0762939, 0.0152588, 0.0457764, 21.7243, 92213.3
12203, 0, -0.000820312, 0.00164062, 0.00287109, 0.127212, 0.163908, 9.77086, 0, 0.0610352, 0.106812, 21.7203, 92213.2
12213, 0.00451172, -0.000820312, 0.000410156, 0.00205078, 0.11498, 0.166354, 9.78309, -0.0457764, -0.0152588, 0.0457764, 21.7299, 92213.3
12223, 0.00123047, 0.00123047, 0.000410156, 0.000820312, 0.112534, 0.163908, 9.78798, -0.0610352, 0, 0.0305176, 21.739, 92213.8
12233, 0.00123047, 0.00246094, 0.000410156, 0, 0.11498, 0.166354, 9.80021, -0.0610352, 0, 0, 21.728, 92213.9
12243, 0.000820312, 0.00164062, -0.000410156, 0.00328125, 0.11498, 0.168801, 9.79043, -0.12207, 0.0915527, 0.0152588, 21.7211, 92214
12253, 0.000410156, 0.00164062, 0.00205078, 0.00328125, 0.124766, 0.154122, 9.79777, -0.0762939, -0.0305176, 0, 21.7254, 92213.9
12263, 0.000410156, 0.00205078, 0.00123047, 0.000410156, 0.119873, 0.149229, 9.80511, -0.0915527, 0.0152588, -0.0152588, 21.7325, 92213.2
12273, -0.00123047, 0.00123047, 0.00123047, 0.00205078, 0.127212, 0.166354, 9.78309, -0.0152588, 0.0610352, 0.0457764, 21.7221, 92213.7
12293, 0.00164062, 0.000410156, 0.000410156, 0.00123047, 0.119873, 0.168801, 9.7782, -0.0305176, 0.0457764, 0.0762939, 21.7189, 92213.5
12303, 0.000820312, 0.000410156, 0, 0.00123047, 0.134551, 0.163908, 9.82223, 0, -0.0762939, 0.0762939, 21.7225, 92213.6
12313, 0.000410156, -0.00123047, 0.00287109, 0.00328125, 0.127212, 0.159015, 9.80021, -0.0762939, 0.0457764, 0.106812, 21.739, 92213.7
12323, 0.00205078, 0.00123047, 0.00287109, 0.00123047, 0.11498, 0.156569, 9.78554, -0.0305176, 0.0305176, 0.0305176, 21.7287, 92213.3
12333, 0.000410156, 0.000410156, -0.00205078, 0.000820312, 0.127212, 0.171247, 9.78309, 0, 0.0915527, 0, 21.7149, 92213.1
12343, 0.000410156, 0.00123047, 0, 0.00287109, 0.119873, 0.159015, 9.79777, -0.0457764, -0.0457764, 0.0457764, 21.7289, 92213.4
12353, 0.00123047, 0.00205078, 0.000820312, 0.00287109, 0.134551, 0.159015, 9.80266, -0.137329, -0.0305176, 0, 21.7311, 92214
12373, -0.000410156, 0.000410156, 0.00205078, 0.00287109, 0.134551, 0.151676, 9.7733, -0.0305176, 0, -0.0152588, 21.7251, 92213.8
12383, 0.00164062, 0.000410156, 0.000410156, 0.00123047, 0.136998, 0.154122, 9.80511, -0.0610352, 0.0305176, 0.0152588, 21.7253, 92213.5
12393, 0.00164062, -0.00123047, 0.000820312, 0.00123047, 0.139444, 0.166354, 9.80021, -0.0305176, -0.0152588, 0.137329, 21.7207, 92213.5
12403, 0.00287109, 0.00123047, 0.00123047, 0.00246094, 0.136998, 0.146783, 9.79288, -0.0610352, 0.12207, 0.0152588, 21.726, 92213.6
12413, 0.00287109, 0.00123047, 0.00164062, 0.00246094, 0.119873, 0.154122, 9.78798, -0.0457764, 0.0610352, 0, 21.7203, 92213.3
12423, 0.00246094, -0.000410156, -0.000410156, 0.00625488, 0.132105, 0.171247, 9.79777, -0.0457764, 0.0152588, 0.0610352, 21.7324, 92213.3
12433, 0.00164062, 0.00123047, -0.000410156, 0.00205078, 0.124766, 0.163908, 9.80266, -0.0915527, 0, 0.0457764, 21.725, 92214.1
12443, 0.00164062, -0.000820312, -0.000820312, 0.000410156, 0.124766, 0.144337, 9.78309, -0.0915527, 0.0915527, 0.0152588, 21.7216, 92213.7
12463, 0.00164062, 0, -0.00328125, 0.00287109, 0.107641, 0.163908, 9.78064, -0.106812, 0, 0.0152588, 21.7225, 92213.5
12473, 0.000410156, -0.000820312, -0.00123047, 0.00164062, 0.110087, 0.151676, 9.78554, -0.0457764, 0, 0.0152588, 21.7235, 92213.2
12483, 0.00164062, -0.00205078, -0.00123047, 0.00164062, 0.11498, 0.151676, 9.78309, -0.0610352, 0, 0.0610352, 21.715, 92213.6
12493, 0.00164062, 0.000410156, -0.000410156, 0.00205078, 0.127212, 0.168801, 9.79777, -0.137329, -0.0152588, 0.0152588, 21.7173, 92214
12503, 0.00287109, -0.000410156, -0.000410156, 0.00205078, 0.122319, 0.161461, 9.79288, -0.0610352, 0, 0.0457764, 21.718, 92213.6
12513, 0.00410156, -0.000410156, -0.00123047, 0.00205078, 0.124766, 0.146783, 9.81734, -0.0610352, -0.0152588, 0.0457764, 21.7162, 92213.2
12523, 0.00369141, 0.00328125, 0.00164062, 0.00123047, 0.122319, 0.183479, 9.7782, -0.0305176, -0.0152588, 0.0457764, 21.7244, 92213.8
12543, 0.00123047, -0.00123047, 0.000820312, 0.000820312, 0.11498, 0.171247, 9.80021, -0.0762939, 0.0305176, 0, 21.7283, 92214
12553, 0.00123047, 0.00164062, 0.00410156, 0.00205078, 0.134551, 0.154122, 9.79532, -0.0457764, -0.0152588, 0.0610352, 21.714, 92214.1
12563, 0.00287109, 0.000410156, -0.000410156, 0.00205078, 0.122319, 0.159015, 9.78554, -0.0762939, 0.0610352, 0.0152588, 21.7323, 92212.8
12573, 0.00164062, 0.000410156, -0.00123047, 0.00246094, 0.11498, 0.168801, 9.7782, -0.106812, 0, 0, 21.7191, 92213.6
12583, 0.00369141, 0.00123047, -0.00123047, 0.000410156, 0.139444, 0.171247, 9.79288, -0.0305176, 0.0152588, 0.0457764, 21.736, 92213.1
12593, 0.000820312, -0.000410156, 0.000820312, 0.000410156, 0.124766, 0.161461, 9.80755, -0.0610352, 0, 0.0152588, 21.7275, 92214
12603, 0.000820312, -0.000820312, -0.000410156, 0.00123047, 0.139444, 0.144337, 9.78554, -0.0610352, 0.0610352, 0.0762939, 21.7247, 92213.7
12613, 0.00246094, -0.00164062, 0.000820312, 0.00287109, 0.132105, 0.17614, 9.78798, -0.0762939, 0.0305176, 0.0305176, 21.7266, 92213.9
12633, 0.00451172, -0.00123047, 0.000820312, 0.00451172, 0.11498, 0.144337, 9.79777, -0.0610352, 0.0305176, -0.0610352, 21.7279, 92213
12643, 0.00287109, 0.00123047, 0.000820312, 0.00287109, 0.124766, 0.146783, 9.7782, -0.0762939, 0.0915527, -0.0305176, 21.726, 92213.2
12653, 0.00287109, 0.000820312, 0.00164062, 0.000820312, 0.110087, 0.151676, 9.79288, -0.0152588, 0.0610352, 0.0610352, 21.7258, 92213.5
12663, 0.000820312, 0.00205078, 0, 0.00246094, 0.119873, 0.144337, 9.79777, -0.0762939, 0, 0.106812, 21.7284, 92213.9
12673, 0.00246094, 0.00205078, -0.000410156, 0.00246094, 0.119873, 0.166354, 9.79777, 0.0457764, -0.106812, 0, 21.7229, 92213.3
12683, 0.00205078, 0.00205078, 0.00164062, 0.000410156, 0.127212, 0.17614, 9.78309, 0, -0.0457764, 0.0610352, 21.7243, 92212.5
12693, 0.00246094, -0.00164062, 0.00164062, 0.00205078, 0.119873, 0.159015, 9.80021, -0.0305176, 0, 0.0305176, 21.7309, 92213.2
12713, 0.000820312, -0.000820312, 0.000410156, 0.00164062, 0.124766, 0.146783, 9.78554, 0, -0.0152588, 0.0305176, 21.7333, 92213.3
12723, 0.00287109, -0.000820312, 0.00123047, 0.00164062, 0.122319, 0.151676, 9.80511, -0.0457764, 0.0152588, 0.0457764, 21.7175, 92213.3
12733, 0.00164062, 0.00123047, 0.000820312, 0.00287109, 0.127212, 0.139444, 9.79043, -0.0610352, 0.0152588, 0.0305176, 21.7271, 92213.8
12743, 0.00287109, -0.000410156, 0.000820312, 0.000820312, 0.11498, 0.149229, 9.78798, 0, 0.0152588, 0, 21.7266, 92213.2
12753, 0.000820312, 0.00287109, 0.000410156, 0.000410156, 0.117426, 0.161461, 9.80021, -0.0762939, 0.0457764, 0.0457764, 21.7284, 92213.9
12763, 0.000820312, 0, 0.00205078, 0.00164062, 0.127212, 0.181032, 9.79532, -0.0457764, -0.0152588, 0.0305176, 21.7258, 92214.3
12773, 0.00123047, 0, -0.000410156, 0.00164062, 0.107641, 0.163908, 9.79288, -0.0610352, -0.0915527, 0, 21.7194, 92212.9
12783, 0.000820312, 0, 0.000410156, -0.000410156, 0.11498, 0.139444, 9.80511, -0.0610352, 0.0305176, 0.0610352, 21.7424, 92214
12803, 0.00123047, 0.00123047, 0, 0.00164062, 0.132105, 0.156569, 9.79532, -0.0915527, -0.0152588, 0.0305176, 21.7289, 92213.3
12813, 0.00123047, 0.00246094, -0.000410156, 0.000410156, 0.129658, 0.168801, 9.79288, -0.0915527, 0.0610352, 0.0152588, 21.73, 92214.2
12823, 0.00205078, 0.00164062, 0.000410156, 0.00164062, 0.127212, 0.161461, 9.79288, -0.0915527, -0.0152588, 0.0152588, 21.7418, 92214
12833, -0.000820312, 0.00164062, 0.00287109, 0.00164062, 0.136998, 0.166354, 9.79532, -0.0762939, 0.0762939, 0.0457764, 21.7214, 92214
12843, 0.00246094, 0, 0.00369141, 0.00164062, 0.11498, 0.173693, 9.78798, -0.0457764, 0.0152588, 0, 21.7355, 92213.4
12853, -0.000820312, 0, 0.00369141, 0.000820312, 0.127212, 0.159015, 9.80755, -0.0762939, 0.0610352, 0.0152588, 21.7258, 92213.5
12863, -0.000820312, 0.00205078, 0.00205078, 0.000410156, 0.124766, 0.154122, 9.78554, -0.0610352, 0.0305176, -0.0457764, 21.7163, 92214
12883, 0.00164062, 0.000820312, 0.000410156, 0.00287109, 0.11498, 0.163908, 9.79532, -0.137329, 0.0457764, 0.0610352, 21.7284, 92212.9
12893, 0.00287109, 0.00287109, 0, 0.000820312, 0.124766, 0.171247, 9.78798, -0.0152588, -0.0305176, 0.0457764, 21.7366, 92213.7
12903, 0.00164062, 0.000820312, 0, 0.00205078, 0.11498, 0.168801, 9.80511, -0.0610352, -0.0610352, 0.0762939, 21.7316, 92213.5
12913, 0.00164062, -0.000820312, 0.00164062, 0.00328125, 0.129658, 0.173693, 9.80021, -0.0457764, 0.0610352, 0, 21.7335, 92213.4
12923, 0.00246094, -0.000410156, 0.00205078, 0.00287109, 0.129658, 0.185925, 9.80511, 0, 0.0305176, 0.0152588, 21.7265, 92213.6
12933, 0.00246094, -0.000410156, 0, 0.00287109, 0.117426, 0.146783, 9.78554, -0.0915527, 0.0152588, 0.0762939, 21.7325, 92213.2
12943, 0.00205078, 0, 0.00123047, 0.00246094, 0.129658, 0.171247, 9.79288, -0.137329, -0.0152588, 0.0915527, 21.7362, 92213.4
12953, 0.00246094, 0.00123047, 0.00123047, 0.00205078, 0.105195, 0.151676, 9.79288, -0.12207, 0.0152588, 0.0610352, 21.7274, 92213.3
12973, 0.00246094, 0.00123047, -0.000410156, 0.00123047, 0.117426, 0.149229, 9.79532, -0.106812, -0.0305176, 0.0610352, 21.7374, 92213.6
12983, 0.00328125, 0.00123047, -0.00205078, 0.00123047, 0.117426, 0.146783, 9.81, -0.106812, -0.0305176, 0.0305176, 21.7388, 92213.8
12993, 0.000410156, -0.000410156, 0.000410156, 0.00123047, 0.122319, 0.154122, 9.80021, -0.106812, -0.0305176, 0.0610352, 21.7354, 92213.5
13003, 0.00205078, 0.00246094, 0.000410156, 0.00246094, 0.129658, 0.146783, 9.78309, -0.0305176, 0.0152588, 0.0305176, 21.7309, 92213.9
13013, 0, 0.00205078, 0.000820312, 0.000410156, 0.132105, 0.146783, 9.7782, -0.0457764, -0.0305176, 0.0152588, 21.7367, 92214.1
13023, 0, 0.00164062, 0.00123047, 0.00328125, 0.132105, 0.161461, 9.79288, -0.0762939, -0.0457764, -0.0152588, 21.7276, 92213.7
13033, 0.00123047, 0.00123047, 0.00123047, 0.00287109, 0.127212, 0.183479, 9.79532, -0.0915527, 0, 0.0305176, 21.7303, 92214
13053, 0.00410156, 0.00205078, 0.00164062, 0.000820312, 0.124766, 0.144337, 9.80266, -0.0457764, -0.0457764, 0.0610352, 21.7274, 92213.4
13063, 0.000820312, -0.00123047, 0.00164062, 0.00205078, 0.110087, 0.159015, 9.79532, -0.0762939, -0.0305176, 0.0457764, 21.7239, 92214.3
13073, 0.000820312, 0.00205078, 0.00123047, 0.00287109, 0.127212, 0.151676, 9.80755, -0.0610352, -0.0305176, 0.0152588, 21.7362, 92214.3
13083, 0.00369141, 0.00123047, 0.000820312, 0.00369141, 0.11498, 0.154122, 9.80511, -0.0762939, 0.0457764, 0.0152588, 21.7468, 92213.5
13093, 0.00246094, 0.00123047, 0.00164062, 0.00369141, 0.110087, 0.156569, 9.78554, -0.0610352, 0.0457764, 0.106812, 21.7289, 92213.3
13103, -0.000410156, 0.00205078, 0.000410156, 0.00328125, 0.107641, 0.161461, 9.78798, -0.0915527, 0.0152588, 0.0152588, 21.7299, 92213.3
13113, 0.00287109, -0.000410156, 0.000410156, 0.00410156, 0.11498, 0.146783, 9.79043, -0.0762939, -0.0610352, 0.0915527, 21.7231, 92213.4
13123, 0.00287109, 0.000820312, 0.000820312, 0.000410156, 0.122319, 0.163908, 9.79043, -0.0305176, 0, 0.0305176, 21.735, 92213.8
13143, 0.000410156, -0.000410156, 0.00205078, -0.00123047, 0.144337, 0.159015, 9.78554, -0.0305176, -0.0152588, 0.0152588, 21.735, 92213.9
13153, 0.00287109, -0.000820312, 0, 0.00205078, 0.129658, 0.173693, 9.78309, -0.0610352, 0.0610352, 0, 21.7289, 92213.5
13163, 0.00205078, 0.00287109, 0, 0.00123047, 0.132105, 0.159015, 9.78554, -0.137329, -0.0305176, 0.0457764, 21.7291, 92214
13173, 0.00287109, 0.00205078, 0.000820312, 0.00123047, 0.139444, 0.159015, 9.79777, -0.0610352, -0.0457764, 0.0457764, 21.7333, 92213.5
13183, 0.00287109, 0, 0, 0.00246094, 0.127212, 0.156569, 9.80266, -0.0762939, 0.0762939, -0.0152588, 21.7386, 92214.1
13193, 0.00246094, 0, 0.00123047, 0.00246094, 0.112534, 0.151676, 9.80266, -0.0762939, -0.0305176, -0.0152588, 21.7262, 92213.6
13203, -0.000820312, 0, -0.00123047, 0.00246094, 0.124766, 0.149229, 9.79288, -0.0762939, 0.0305176, 0.0305176, 21.7268, 92213.8
13223, 0.00369141, 0.000820312, -0.00123047, 0, 0.110087, 0.159015, 9.79288, -0.0152588, 0, 0.0152588, 21.7377, 92214
13233, 0.00369141, 0.00123047, 0.00123047, 0.000820312, 0.119873, 0.159015, 9.77575, -0.0305176, -0.0915527, -0.0305176, 21.7377, 92214.2
13243, 0.00287109, 0.00123047, 0.000820312, 0.00164062, 0.117426, 0.171247, 9.78798, -0.0305176, 0.0305176, 0.0152588, 21.7431, 92213.3
13253, 0.00287109, 0.00123047, 0.00246094, 0.00164062, 0.119873, 0.168801, 9.78798, -0.0457764, -0.0152588, 0, 21.7445, 92213.7
13263, 0.00246094, 0.000410156, 0.000410156, 0.00287109, 0.124766, 0.185925, 9.79777, -0.0457764, 0.0457764, 0.0457764, 21.7325, 92213.6
13273, 0.000820312, 0.000820312, 0.000410156, 0.000410156, 0.119873, 0.173693, 9.80511, 0, 0.0305176, 0.0457764, 21.7529, 92213.6
13283, 0.000820312, 0.000820312, 0.00287109, 0.00328125, 0.112534, 0.178586, 9.78798, -0.0457764, -0.0305176, 0.0457764, 21.7463, 92214.2
13293, 0.00246094, 0, 0.00164062, 0.000410156, 0.105195, 0.139444, 9.79532, -0.106812, 0.0915527, 0.0305176, 21.7419, 92213.5
13313, 0.00328125, 0.00123047, 0.00123047, 0.00287109, 0.117426, 0.156569, 9.80511, -0.0762939, 0.0762939, 0.0762939, 21.72, 92213.4
13323, 0.00246094, -0.000410156, 0.00123047, 0.000820312, 0.112534, 0.154122, 9.79777, -0.12207, 0.0152588, 0.0152588, 21.7435, 92213.5
13333, 0.00246094, 0, 0.00205078, 0.00287109, 0.151676, 0.149229, 9.78309, -0.12207, -0.0305176, -0.0152588, 21.7392, 92213.5
13343, 0.00246094, -0.000410156, -0.000410156, -0.000410156, 0.144337, 0.156569, 9.79777, -0.137329, 0.0305176, 0, 21.7332, 92214.2
13353, 0.00246094, -0.000410156, -0.000820312, -0.000410156, 0.159015, 0.159015, 9.80511, -0.0762939, -0.0152588, 0, 21.7283, 92214
13363, 0.000820312, -0.00123047, 0.000820312, 0.00369141, 0.151676, 0.178586, 9.79043, -0.0762939, -0.0457764, 0.0152588, 21.7492, 92213.9
13373, 0.00410156, 0.00205078, 0.000820312, 0.00328125, 0.149229, 0.156569, 9.79043, -0.0762939, 0, 0.0762939, 21.7466, 92213.5
13393, 0.00205078, 0.000410156, -0.000410156, 0.000820312, 0.139444, 0.163908, 9.80511, -0.0457764, -0.0152588, 0.0457764, 21.7423, 92213.3
13403, -0.000820312, 0.000410156, -0.000820312, 0.000820312, 0.110087, 0.156569, 9.7782, 0.0610352, 0, 0, 21.7341, 92213.8
13413, 0.00246094, 0.00205078, 0, 0, 0.124766, 0.161461, 9.79777, -0.0152588, 0, 0.0762939, 21.7386, 92213.9
13423, 0.00205078, 0.00164062, 0, 0.000820312, 0.105195, 0.178586, 9.80511, -0.167847, -0.0152588, 0.0457764, 21.7332, 92213.5
13433, 0.00123047, 0.000410156, 0, -0.000410156, 0.0929626, 0.161461, 9.81, -0.0762939, 0, 0.0305176, 21.7448, 92214.1
13443, 0.00123047, 0.000410156, 0.00164062, 0, 0.100302, 0.173693, 9.80755, -0.0457764, -0.0305176, 0.0152588, 21.739, 92213.7
13453, 0.00287109, 0.00287109, 0.000410156, 0.00369141, 0.107641, 0.173693, 9.79043, -0.12207, -0.0152588, 0.0305176, 21.7321, 92213.2
13463, 0.00123047, 0.00287109, -0.000820312, 0.00369141, 0.107641, 0.181032, 9.78309, -0.152588, 0.0305176, 0.0305176, 21.7403, 92214.2
13483, 0.00328125, 0.00328125, 0, 0.00410156, 0.11498, 0.161461, 9.79288, -0.0610352, 0.0762939, 0.0915527, 21.745, 92213.9
13493, 0.00328125, 0, 0.00205078, 0, 0.132105, 0.161461, 9.78064, -0.0915527, 0.0152588, 0.0305176, 21.7472, 92213.5
13503, 0.00164062, -0.000410156, 0.00164062, 0.000820312, 0.14189, 0.151676, 9.79777, 0, 0.0152588, 0.0762939, 21.7415, 92213.7
13513, 0, -0.000410156, -0.000410156, 0.000820312, 0.119873, 0.156569, 9.78798, 0, 0.12207, 0.0457764, 21.7502, 92213.8
13523, 0.00287109, 0.00164062, -0.000410156, 0.00410156, 0.127212, 0.151676, 9.7782, -0.0915527, 0.0610352, 0.0610352, 21.7399, 92213.9
13533, 0.00123047, -0.00164062, -0.000410156, 0.00205078, 0.146783, 0.151676, 9.79777, -0.0457764, 0.0305176, 0.0152588, 21.7346, 92213.8
13543, 0.00123047, -0.000820312, 0.00164062, 0.00287109, 0.14189, 0.146783, 9.78309, -0.0610352, 0, 0.0305176, 21.7359, 92213.9
13553, 0.00123047, 0.00205078, -0.000820312, 0.00287109, 0.151676, 0.146783, 9.81734, -0.0457764, 0, 0.0305176, 21.7521, 92214.3
13573, 0.00205078, 0, 0.00164062, 0.00410156, 0.144337, 0.149229, 9.80755, -0.0457764, -0.0762939, 0.0457764, 21.7381, 92213.9
13583, 0.00502441, 0, 0.00164062, 0.00205078, 0.112534, 0.156569, 9.7782, -0.0610352, -0.0305176, 0.0457764, 21.7437, 92213.8
13593, -0.00123047, -0.00123047, -0.000410156, 0.000410156, 0.112534, 0.161461, 9.80266, -0.106812, 0.0152588, 0.0610352, 21.7395, 92213.6
13603, -0.00123047, 0.00164062, -0.00328125, 0.000410156, 0.105195, 0.144337, 9.81734, -0.0305176, -0.0762939, 0.0457764, 21.7335, 92213.4
13613, 0.000820312, 0.00164062, 0.00205078, 0.000410156, 0.102748, 0.159015, 9.78798, -0.0457764, 0.0762939, 0.0305176, 21.7479, 92213.3
13623, 0.00328125, 0.00123047, 0.00246094, 0.00164062, 0.0929626, 0.166354, 9.76841, -0.0762939, -0.0457764, 0.0457764, 21.7332, 92214.2
13633, 0.00369141, -0.00123047, 0.00246094, -0.000410156, 0.112534, 0.154122, 9.78309, -0.0762939, 0.0762939, 0, 21.7458, 92213
13653, 0.00287109, -0.00123047, 0.000410156, -0.00164062, 0.124766, 0.163908, 9.79777, 0, 0.0610352, 0.0152588, 21.7444, 92213.7
13703, 0.00205078, 0, 0.00246094, -0.00164062, 0.117426, 0.156569, 9.81245, -0.0457764, -0.0152588, 0.0610352, 21.7573, 92214.6
13713, 0.00410156, 0.00246094, 0.00164062, 0, 0.122319, 0.154122, 9.82957, -0.0152588, -0.0152588, 0.0305176, 21.7482, 92213.7
13723, 0.00246094, 0.00246094, 0.00123047, 0, 0.122319, 0.122319, 9.79532, -0.0610352, 0.0610352, -0.0152588, 21.74, 92213.3
13733, 0.00164062, 0.00123047, 0.00205078, -0.000820312, 0.139444, 0.134551, 9.74884, -0.0762939, 0.0915527, 0.0457764, 21.7446, 92213.9
13743, -0.000820312, 0.00205078, 0.00205078, 0.00287109, 0.151676, 0.156569, 9.81489, -0.0762939, -0.0152588, -0.0457764, 21.7431, 92214.1
13753, 0.000820312, 0.00123047, 0.00205078, 0.00328125, 0.139444, 0.154122, 9.83202, 0, 0.0457764, -0.0152588, 21.7512, 92213.6
13763, 0.000820312, 0, -0.000410156, 0.000820312, 0.144337, 0.154122, 9.78798, -0.0762939, -0.0610352, -0.0152588, 21.7427, 92213.5
13783, 0.00123047, 0.00246094, 0.00205078, 0.00369141, 0.146783, 0.159015, 9.77575, -0.0762939, -0.0152588, 0.0305176, 21.7417, 92213.8
13793, -0.000410156, 0.000820312, 0.00205078, 0.00246094, 0.129658, 0.171247, 9.81734, -0.0762939, 0.0152588, 0.0457764, 21.743, 92213.9
13803, 0.00543457, 0.00164062, 0, 0.00123047, 0.122319, 0.178586, 9.79777, -0.106812, 0.0305176, 0.0610352, 21.7425, 92214
13813, 0.00543457, 0.00246094, 0.000820312, 0.00246094, 0.122319, 0.161461, 9.78064, -0.0762939, -0.152588, 0.0457764, 21.7461, 92213.6
13823, 0.00164062, 0.00246094, 0.000820312, 0.00246094, 0.0929626, 0.168801, 9.78064, -0.0305176, -0.0457764, 0.0305176, 21.7446, 92213.7
13833, 0.00164062, 0, 0.00205078, 0.00369141, 0.0978554, 0.154122, 9.81489, -0.0457764, 0.0305176, 0.0762939, 21.7376, 92213.9
13843, 0.00123047, 0.00123047, 0.00205078, 0.00328125, 0.102748, 0.163908, 9.83202, -0.0152588, -0.0305176, -0.0305176, 21.7556, 92213.3
13853, 0.00205078, 0.00123047, 0.00164062, 0, 0.100302, 0.17614, 9.79532, -0.0762939, 0, -0.0457764, 21.748, 92213.4
13873, 0.00246094, 0.00123047, 0.00164062, 0.00451172, 0.11498, 0.163908, 9.81, -0.0610352, 0.0457764, -0.0305176, 21.7345, 92214
13883, 0.00246094, 0.000410156, 0.00123047, 0.00451172, 0.112534, 0.163908, 9.81979, -0.0152588, 0.0457764, 0.0152588, 21.7448, 92214.1
13893, 0.00123047, 0, 0.000820312, 0.00123047, 0.119873, 0.154122, 9.79777, -0.0610352, 0.0152588, 0.0457764, 21.7346, 92213.7
13903, -0.000410156, -0.000820312, 0.000820312, 0.00246094, 0.146783, 0.156569, 9.78554, -0.12207, -0.0305176, 0.0152588, 21.742, 92213.9
13913, 0.000410156, 0.00246094, 0.000410156, 0.00123047, 0.136998, 0.161461, 9.80021, -0.0915527, 0.0152588, 0.0457764, 21.7495, 92213.5
13923, 0.000410156, 0.00123047, 0.000410156, 0.000410156, 0.134551, 0.161461, 9.81979, -0.0762939, 0.0457764, -0.0152588, 21.7404, 92213.4
13933, 0.00164062, 0.00123047, 0.000410156, 0.000410156, 0.146783, 0.149229, 9.80266, -0.152588, 0.0152588, 0.0457764, 21.7508, 92213.5
13953, 0.00328125, -0.00205078, 0.000820312, 0.00205078, 0.146783, 0.156569, 9.79532, -0.0305176, 0.0915527, 0, 21.738, 92214.2
13963, 0.00328125, 0.00287109, 0.00205078, 0.00123047, 0.14189, 0.166354, 9.80021, -0.0610352, 0.0152588, 0, 21.754, 92214
13973, 0.00328125, -0.000410156, 0.00123047, -0.00123047, 0.144337, 0.146783, 9.79288, -0.0457764, 0.0457764, 0.0305176, 21.7504, 92213.9
13983, 0.00123047, -0.000410156, 0.00246094, -0.00123047, 0.124766, 0.168801, 9.77575, -0.0152588, 0, 0.0457764, 21.7409, 92213.8
13993, 0.00123047, -0.00123047, 0.00205078, 0.00164062, 0.134551, 0.156569, 9.79532, -0.0457764, -0.0457764, 0.0610352, 21.7534, 92213.7
14003, 0.00328125, 0.00164062, 0.00205078, 0.00246094, 0.119873, 0.156569, 9.80755, -0.0457764, 0, 0.0457764, 21.7465, 92213.5
14013, 0.00328125, -0.00287109, -0.00164062, 0.00205078, 0.117426, 0.163908, 9.81489, -0.0305176, 0.0610352, 0.0915527, 21.7442, 92213.4
14023, 0.00328125, 0, 0.00164062, 0.00246094, 0.102748, 0.154122, 9.78554, -0.0457764, -0.0762939, 0, 21.746, 92213.3
14043, 0.00205078, 0.000820312, -0.000410156, 0.00328125, 0.0905162, 0.154122, 9.79777, -0.106812, -0.0457764, 0.0762939, 21.7508, 92214
14053, 0.00246094, -0.00164062, -0.000410156, 0.00205078, 0.0905162, 0.161461, 9.79777, 0.0152588, 0.0305176, 0.0610352, 21.7413, 92213.5
14063, 0.00205078, 0.00205078, 0.000410156, 0.000820312, 0.105195, 0.163908, 9.80021, -0.0610352, 0.0305176, 0.0152588, 21.7484, 92213.3
14073, 0.00205078, 0.000820312, 0.000820312, 0.000410156, 0.119873, 0.166354, 9.79288, -0.0152588, -0.0152588, -0.0152588, 21.7471, 92213.4
14083, 0.00287109, 0.000820312, -0.00123047, 0.000820312, 0.124766, 0.146783, 9.78798, -0.0762939, -0.0457764, -0.0152588, 21.7514, 92213.3
14093, 0.00502441, 0.000410156, 0.00246094, 0.000820312, 0.139444, 0.156569, 9.80266, -0.0915527, 0, 0.0152588, 21.7491, 92213.8
14103, 0, 0, -0.000410156, 0, 0.129658, 0.161461, 9.78554, -0.0610352, -0.0457764, 0, 21.7452, 92213.8
14123, 0.00164062, 0, 0.00164062, 0.000410156, 0.14189, 0.14189, 9.80266, -0.0762939, -0.0762939, 0.0305176, 21.7444, 92213.3
14133, 0.00164062, 0.00328125, 0.000820312, 0.00246094, 0.134551, 0.161461, 9.81734, 0, 0, 0.0152588, 21.747, 92213.4
14143, 0.00328125, 0.00328125, 0.000410156, 0.00246094, 0.127212, 0.146783, 9.79532, -0.0305176, 0.0152588, 0.0457764, 21.7493, 92213.7
14153, 0.00205078, 0.00123047, 0.00123047, 0.00287109, 0.124766, 0.144337, 9.80266, -0.0915527, 0.0152588, 0, 21.7378, 92213.5
14163, 0.00164062, -0.000820312, 0.00123047, 0.00410156, 0.119873, 0.156569, 9.78798, 0.0305176, 0, 0, 21.7507, 92213.8
14173, 0.00164062, 0, 0.000410156, 0.00287109, 0.139444, 0.14189, 9.79043, -0.0152588, 0.0152588, 0.0305176, 21.7528, 92213.9
14183, 0.00164062, 0, 0.000820312, 0.00328125, 0.119873, 0.161461, 9.80021, -0.0305176, 0.0305176, 0.0457764, 21.7538, 92213.7
14193, 0.000410156, 0, 0.00123047, 0.00328125, 0.110087, 0.168801, 9.76841, -0.0915527, 0, 0, 21.7525, 92213.7
14213, 0.00287109, 0.00123047, 0.00205078, 0.000410156, 0.105195, 0.168801, 9.80021, -0.0457764, 0.0305176, 0.0610352, 21.7499, 92213.4
14223, 0.000410156, 0.000410156, 0.00246094, 0.00287109, 0.102748, 0.166354, 9.79288, -0.0152588, 0.0457764, 0.0762939, 21.7493, 92213
14233, 0.000410156, -0.000410156, 0.00328125, 0.00123047, 0.095409, 0.173693, 9.80021, -0.0152588, -0.0305176, 0.0305176, 21.7509, 92213.1
14243, 0.00123047, -0.000410156, 0.00123047, 0.00123047, 0.0880698, 0.156569, 9.79777, -0.0305176, -0.0457764, 0.12207, 21.7527, 92213.2
14253, 0.00123047, 0.000410156, 0, 0.00287109, 0.100302, 0.17614, 9.78798, -0.0610352, 0.0610352, 0.0152588, 21.7551, 92213.6
14263, 0.00410156, 0.00164062, 0, 0.00123047, 0.107641, 0.154122, 9.80511, -0.0762939, -0.0305176, -0.0457764, 21.7477, 92213.7
14273, 0.000820312, 0.00287109, 0.00164062, 0.00123047, 0.100302, 0.154122, 9.79777, -0.0152588, -0.0762939, -0.0152588, 21.7398, 92214.1
