timestamp, current1, current2, current3, current4, accelx, accely, accelz, degrees x, degrees y, degrees z, baro temp, baro pressure
138603153, 0.0426563, 0.0179443, 0.0255322, 0.0581396, -0.0587132, 7.91161, -6.39974, 0.259399, 0.152588, 0.0305176, 0, 0
138605613, 0.0418359, 0.0158936, 0.0255322, 0.0573193, 0.0366958, 8.04126, -6.14532, 0.0762939, 0.0610352, -0.0305176, 0, 0
138605663, 0.0414258, 0.0167139, 0.0221484, 0.0573193, 0.031803, 8.00946, -6.18691, 0.289917, 0.183105, -0.0305176, 0, 0
138605673, 0.0414258, 0.0167139, 0.0233789, 0.060293, 0.00733915, 8.0535, -6.25051, 0.335693, 0.305176, -0.0152588, 0, 0
138605683, 0.0414258, 0.0154834, 0.0241992, 0.060293, -0.0293566, 8.03393, -6.35326, 0.289917, 0.335693, -0.106812, 0, 0
138605693, 0.0434766, 0.0175342, 0.0241992, 0.0569092, -0.095409, 7.9801, -6.44622, -0.183105, 0.518799, -0.0457764, 0, 0
138605703, 0.0418359, 0.0163037, 0.0259424, 0.056499, -0.112534, 7.91895, -6.45601, -0.488281, 0.396728, -0.0762939, 0, 0
138605723, 0.0430664, 0.0191748, 0.0247119, 0.0577295, -0.0929626, 7.89937, -6.44378, 0.0762939, 0.198364, -0.152588, 0, 0
138605733, 0.0430664, 0.0137402, 0.0237891, 0.0577295, -0.063606, 7.87246, -6.46824, 0.534058, 0.152588, -0.12207, 0, 0
138605743, 0.0406055, 0.0141504, 0.0225586, 0.0598828, -0.0538205, 7.88714, -6.4609, 0.564575, 0.0305176, -0.0762939, 0, 0
138605753, 0.0418359, 0.0163037, 0.0225586, 0.0607031, -0.0660524, 7.94586, -6.47069, 0.213623, 0.0305176, 0.0152588, 0, 0
138605763, 0.0426563, 0.0167139, 0.0229687, 0.0594727, -0.110087, 8.02903, -6.40953, 0.0610352, -0.0915527, 0.106812, 0, 0
138605773, 0.0430664, 0.0167139, 0.0241992, 0.0581396, -0.154122, 8.06084, -6.40708, -0.244141, -0.106812, 0.12207, 0, 0
138605783, 0.0430664, 0.0163037, 0.0241992, 0.0581396, -0.190818, 7.99723, -6.48292, -0.305176, -0.0305176, 0.167847, 0, 0
138605793, 0.0418359, 0.017124, 0.0247119, 0.0585498, -0.222621, 7.90916, -6.57833, -0.259399, -0.198364, 0.198364, 0, 0
138605813, 0.0438867, 0.0163037, 0.0259424, 0.0569092, -0.217728, 7.74525, -6.60034, -0.335693, -0.244141, 0.152588, 0, 0
138605823, 0.0418359, 0.0163037, 0.0237891, 0.060293, -0.254424, 7.72324, -6.50983, -0.152588, -0.259399, 0.198364, 0, 0
138605833, 0.0418359, 0.0167139, 0.0251221, 0.060293, -0.266656, 7.81375, -6.44622, 0.0610352, -0.274658, 0.274658, 0, 0
138605843, 0.0426563, 0.017124, 0.0233789, 0.0594727, -0.298459, 7.97277, -6.33369, 0.305176, -0.305176, 0.350952, 0, 0
138605853, 0.0438867, 0.0150732, 0.0233789, 0.0581396, -0.303352, 8.15135, -6.30678, 0.167847, -0.244141, 0.320435, 0, 0
138605863, 0.0414258, 0.0163037, 0.0229687, 0.0556787, -0.271549, 8.26878, -6.30923, -0.152588, -0.320435, 0.198364, 0, 0
138605873, 0.0434766, 0.0163037, 0.0241992, 0.05896, -0.20305, 8.23942, -6.28721, -0.610352, -0.198364, 0.0457764, 0, 0
138605893, 0.0418359, 0.0167139, 0.0279932, 0.060293, -0.0440349, 7.89937, -6.23339, -0.915527, -0.198364, 0.0457764, 0, 0
138605903, 0.0414258, 0.0129199, 0.0279932, 0.0585498, -0.00244638, 7.80397, -6.18446, -0.640869, -0.106812, 0.0152588, 0, 0
138605913, 0.0442969, 0.0154834, 0.0263525, 0.0556787, 0.0195711, 7.84555, -6.14287, 0, -0.0915527, 0.0610352, 0, 0
138605923, 0.0430664, 0.0154834, 0.0255322, 0.0598828, 0.0220175, 7.96787, -6.12819, 0.427246, -0.0305176, 0.152588, 0, 0
138605933, 0.0442969, 0.0154834, 0.0255322, 0.056499, 0.0171247, 8.17582, -6.13798, 0.457764, -0.0610352, 0.213623, 0, 0
138605943, 0.0442969, 0.0150732, 0.0263525, 0.056499, 0.00978554, 8.33483, -6.09639, 0.228882, -0.0762939, 0.198364, 0, 0
138605953, 0.0410156, 0.0187646, 0.0241992, 0.0623437, 0.0269102, 8.40333, -6.02789, -0.305176, -0.0610352, 0.0915527, 0, 0
138605963, 0.0406055, 0.0158936, 0.0241992, 0.0577295, 0.0342494, 8.33728, -6.07193, -0.549316, 0, -0.0610352, 0, 0
138605983, 0.0418359, 0.0175342, 0.0229687, 0.0581396, 0.0269102, 8.04616, -6.12819, -0.0915527, 0.106812, -0.0762939, 0, 0
138605993, 0.0418359, 0.0145605, 0.0247119, 0.0581396, 0.00733915, 7.99968, -6.22605, 0.106812, 0.106812, -0.106812, 0, 0
138606003, 0.0426563, 0.0154834, 0.0259424, 0.0573193, -0.0587132, 8.01191, -6.24807, 0.213623, 0.228882, -0.0915527, 0, 0
138606013, 0.0410156, 0.0175342, 0.0259424, 0.0585498, -0.0880698, 8.06328, -6.25051, 0.244141, 0.183105, -0.137329, 0, 0
138606023, 0.0414258, 0.0163037, 0.0251221, 0.0581396, -0.146783, 8.08775, -6.25296, 0.366211, 0.213623, -0.167847, 0, 0
138606033, 0.0422461, 0.0163037, 0.0241992, 0.0585498, -0.144337, 8.12444, -6.27987, 0.366211, 0.289917, -0.228882, 0, 0
138606043, 0.0426563, 0.0154834, 0.0255322, 0.0585498, -0.122319, 8.12689, -6.35081, 0.228882, 0.350952, -0.274658, 0, 0
138606063, 0.0414258, 0.0154834, 0.0229687, 0.0585498, -0.102748, 7.90916, -6.48292, -0.213623, 0.289917, -0.213623, 0, 0
138606073, 0.0418359, 0.0163037, 0.0233789, 0.0556787, -0.0684988, 7.8162, -6.50004, -0.38147, 0.259399, -0.12207, 0, 0
138606083, 0.0422461, 0.0163037, 0.0241992, 0.0585498, -0.0733915, 7.76727, -6.51227, -0.305176, 0.244141, -0.137329, 0, 0
138606093, 0.0426563, 0.0158936, 0.0241992, 0.0548584, -0.0587132, 7.73547, -6.52451, 0.0305176, 0.106812, -0.0610352, 0, 0
138606103, 0.0426563, 0.0141504, 0.0255322, 0.0548584, -0.00978554, 7.72079, -6.54163, 0.335693, 0.137329, -0.0457764, 0, 0
138606113, 0.0418359, 0.0175342, 0.0255322, 0.0598828, 0.00733915, 7.75748, -6.60279, 0.289917, 0.0457764, 0.0305176, 0, 0
138606123, 0.0426563, 0.0163037, 0.0229687, 0.0577295, 0.0464813, 7.83088, -6.58811, 0.137329, -0.106812, 0.0305176, 0, 0
138606133, 0.0426563, 0.0163037, 0.0225586, 0.05896, 0.0660524, 7.848, -6.49515, -0.167847, -0.137329, 0.0457764, 0, 0
138606153, 0.0414258, 0.0150732, 0.0251221, 0.0577295, 0.0391421, 7.87002, -6.29944, -0.38147, -0.0152588, 0.0305176, 0, 0
138606163, 0.0406055, 0.0158936, 0.0233789, 0.05896, 0.0440349, 7.98255, -6.31901, -0.0305176, 0.0762939, 0.0457764, 0, 0
138606173, 0.0422461, 0.0158936, 0.0233789, 0.0585498, 0.0611596, 8.07307, -6.44133, 0.228882, 0.0457764, 0.0305176, 0, 0
138606183, 0.0410156, 0.0163037, 0.0233789, 0.0581396, 0.0562668, 8.05839, -6.55142, 0.0457764, 0.0152588, -0.0457764, 0, 0
138606193, 0.0410156, 0.0163037, 0.0229687, 0.0577295, 0.0807307, 7.96298, -6.55386, -0.50354, -0.0457764, -0.0610352, 0, 0
138606203, 0.0410156, 0.0158936, 0.0247119, 0.0577295, 0.0293566, 7.88714, -6.44133, -0.869751, -0.0762939, 0.0152588, 0, 0
138606213, 0.0406055, 0.0163037, 0.0251221, 0.0585498, -0.0220175, 7.89204, -6.29455, -0.869751, -0.106812, -0.0152588, 0, 0
138606233, 0.0410156, 0.0154834, 0.0251221, 0.0556787, -0.127212, 8.10487, -6.10862, 0.12207, -0.0457764, 0.0457764, 0, 0
138606243, 0.0418359, 0.0154834, 0.0241992, 0.0581396, -0.171247, 8.24432, -6.11841, 0.167847, 0.12207, 0.0762939, 0, 0
138606253, 0.04604, 0.0154834, 0.0267627, 0.0581396, -0.14189, 8.33483, -6.16978, -0.137329, 0.0610352, 0.0152588, 0, 0
138606263, 0.04604, 0.0158936, 0.0221484, 0.0594727, -0.0929626, 8.36663, -6.1918, -0.640869, 0.0152588, -0.0915527, 0, 0
138606273, 0.0434766, 0.0150732, 0.0221484, 0.056499, -0.0587132, 8.23208, -6.23828, -0.839233, 0.0457764, -0.12207, 0, 0
138606283, 0.0426563, 0.017124, 0.0213281, 0.0560889, -0.0464813, 7.99968, -6.34103, -0.457764, -0.0457764, -0.0305176, 0, 0
138606293, 0.0438867, 0.017124, 0.0229687, 0.0581396, -0.0244638, 7.78929, -6.40953, 0.183105, -0.106812, 0.213623, 0, 0
138606303, 0.0426563, 0.0158936, 0.0213281, 0.0581396, -0.063606, 7.77461, -6.44133, 0.534058, -0.305176, 0.289917, 0, 0
138606323, 0.0430664, 0.0150732, 0.0237891, 0.0556787, -0.0856234, 8.13667, -6.30433, 0.289917, -0.427246, 0.274658, 0, 0
138606333, 0.0430664, 0.0158936, 0.0225586, 0.0585498, -0.0587132, 8.21006, -5.99609, -0.38147, -0.518799, 0.213623, 0, 0
138606343, 0.0426563, 0.0158936, 0.0251221, 0.0577295, -0.00244638, 8.19049, -5.75879, -0.823975, -0.38147, 0.106812, 0, 0
138606353, 0.0401953, 0.0145605, 0.0229687, 0.0569092, 0.0366958, 8.24921, -5.72209, -0.473022, -0.0762939, 0.0610352, 0, 0
138606363, 0.0401953, 0.0163037, 0.0213281, 0.0569092, 0.0831771, 8.31771, -5.77836, 0.12207, 0.12207, -0.167847, 0, 0
138606373, 0.0442969, 0.0167139, 0.0233789, 0.0552686, 0.0856234, 8.15624, -5.94961, 0.350952, 0.366211, -0.228882, 0, 0
138606383, 0.0406055, 0.0158936, 0.0233789, 0.0560889, 0.0244638, 7.79907, -6.14532, 0.183105, 0.488281, -0.152588, 0, 0
138606403, 0.0426563, 0.0137402, 0.0213281, 0.0548584, -0.247085, 7.43212, -6.30433, -0.167847, 0.457764, 0.244141, 0, 0
138606413, 0.0426563, 0.0167139, 0.0233789, 0.0548584, -0.401207, 7.58134, -6.30678, 0.289917, 0.473022, 0.320435, 0, 0
138606423, 0.0434766, 0.017124, 0.0233789, 0.056499, -0.457474, 7.74525, -6.45601, 0.88501, 0.411987, 0.335693, 0, 0
138606433, 0.0430664, 0.0141504, 0.0233789, 0.0577295, -0.442796, 7.84066, -6.77893, 1.297, 0.305176, 0.38147, 0, 0
138606443, 0.0392725, 0.0154834, 0.0241992, 0.0573193, -0.335155, 7.98989, -7.04069, 1.23596, -0.0610352, 0.274658, 0, 0
138606453, 0.0410156, 0.0154834, 0.0229687, 0.0560889, -0.190818, 8.09019, -7.17524, 0.518799, -0.0610352, 0.244141, 0, 0
138606463, 0.0418359, 0.0158936, 0.0225586, 0.0560889, -0.107641, 7.9483, -7.13366, -0.549316, -0.473022, 0.289917, 0, 0
138606473, 0.0418359, 0.0175342, 0.0263525, 0.0560889, -0.0684988, 7.76238, -6.95507, -0.747681, -0.457764, 0.473022, 0, 0
138606493, 0.0418359, 0.0167139, 0.0229687, 0.056499, -0.095409, 7.88714, -6.55631, -0.274658, -0.350952, 0.518799, 0, 0
138606503, 0.0426563, 0.0167139, 0.0247119, 0.0573193, -0.0440349, 8.27367, -6.43888, -0.228882, -0.167847, 0.396728, 0, 0
138606513, 0.0418359, 0.0150732, 0.0255322, 0.0573193, 0.0440349, 8.47917, -6.34347, -0.457764, -0.0305176, 0.0762939, 0, 0
138606523, 0.0418359, 0.0158936, 0.0233789, 0.0577295, 0.17614, 8.4229, -6.21626, -1.297, 0.152588, -0.106812, 0, 0
138606533, 0.0418359, 0.0145605, 0.0233789, 0.05896, 0.244638, 8.30303, -6.01811, -1.93787, 0.411987, -0.335693, 0, 0
138606543, 0.0434766, 0.017124, 0.0247119, 0.0556787, 0.276441, 8.17092, -5.78325, -1.77002, 0.457764, -0.396728, 0, 0
138606553, 0.0434766, 0.017124, 0.0217383, 0.0585498, 0.20305, 8.01435, -5.65604, -1.00708, 0.564575, -0.320435, 0, 0
138606573, 0.0426563, 0.0163037, 0.0217383, 0.0577295, -0.0391421, 7.80152, -6.13064, 0.671387, 0.473022, -0.0762939, 0, 0
138606583, 0.0442969, 0.0163037, 0.0229687, 0.0581396, -0.154122, 7.76482, -6.41931, 0.671387, 0.12207, 0.0915527, 0, 0
138606593, 0.0426563, 0.0158936, 0.0229687, 0.0585498, -0.198157, 7.9165, -6.52451, 0.0305176, -0.152588, 0.0610352, 0, 0
138606603, 0.0442969, 0.0158936, 0.0229687, 0.056499, -0.225067, 8.07062, -6.39974, -0.152588, -0.289917, 0.12207, 0, 0
138606613, 0.0426563, 0.0163037, 0.0237891, 0.0544482, -0.17614, 7.99478, -6.40463, -0.0915527, -0.488281, 0.152588, 0, 0
138606623, 0.0426563, 0.017124, 0.0247119, 0.0544482, -0.119873, 7.76972, -6.48781, 0.259399, -0.778198, 0.427246, 0, 0
138606633, 0.0422461, 0.017124, 0.0229687, 0.0569092, -0.102748, 7.77705, -6.43888, 0.564575, -0.778198, 0.534058, 0, 0
138606643, 0.0442969, 0.019585, 0.0229687, 0.056499, -0.0880698, 8.09998, -6.24317, 0.488281, -0.701904, 0.50354, 0, 0
138606663, 0.0422461, 0.0167139, 0.0233789, 0.0581396, -0.0733915, 8.43269, -5.92759, -0.549316, -0.228882, 0.167847, 0, 0
138606673, 0.0422461, 0.0154834, 0.0233789, 0.0581396, -0.0709451, 8.38131, -5.84441, -0.427246, 0.0152588, 0, 0, 0
138606683, 0.0422461, 0.017124, 0.0255322, 0.056499, -0.0269102, 8.43269, -5.76123, -0.137329, 0.152588, -0.12207, 0, 0
138606693, 0.0426563, 0.0163037, 0.0255322, 0.0569092, 0.0195711, 8.51342, -5.83218, 0.0762939, 0.534058, -0.335693, 0, 0
138606703, 0.0434766, 0.0158936, 0.0247119, 0.0577295, 0.063606, 8.45715, -6.11841, 0.137329, 0.62561, -0.473022, 0, 0
138606713, 0.0434766, 0.0158936, 0.0263525, 0.0544482, 0.0758379, 8.12444, -6.48047, -0.0610352, 0.488281, -0.473022, 0, 0
138606723, 0.0422461, 0.0141504, 0.0237891, 0.0544482, 0.0782843, 7.78929, -6.74223, -0.0762939, 0.244141, -0.335693, 0, 0
138606743, 0.0422461, 0.0141504, 0.0241992, 0.0539355, 0.0171247, 7.74281, -6.59545, 0.549316, -0.0610352, -0.0610352, 0, 0
138606753, 0.0430664, 0.0179443, 0.0267627, 0.0577295, 0.00244638, 7.83332, -6.52451, 0.732422, -0.106812, -0.0762939, 0, 0
138606763, 0.0448096, 0.0179443, 0.0233789, 0.0556787, 0.0244638, 7.91405, -6.45845, 0.518799, -0.106812, -0.0915527, 0, 0
138606773, 0.0392725, 0.0158936, 0.0233789, 0.0548584, 0.0880698, 8.00702, -6.42176, -0.0762939, -0.137329, 0.0152588, 0, 0
138606783, 0.0392725, 0.0150732, 0.0225586, 0.0548584, 0.0978554, 7.99478, -6.40953, -0.717163, -0.0762939, 0.0152588, 0, 0
138606793, 0.0414258, 0.0167139, 0.0221484, 0.056499, 0.110087, 7.96053, -6.34103, -0.717163, 0.0610352, -0.0915527, 0, 0
138606803, 0.0410156, 0.0163037, 0.0221484, 0.0585498, 0.0733915, 7.81375, -6.35571, -0.38147, -0.0457764, -0.0152588, 0, 0
138606813, 0.0448096, 0.0163037, 0.0237891, 0.0544482, -0.0244638, 7.57645, -6.38506, 0.152588, -0.12207, 0.0305176, 0, 0
138606833, 0.0434766, 0.0154834, 0.0251221, 0.0573193, -0.183479, 7.69143, -6.16, 0.183105, -0.0152588, 0.106812, 0, 0
138606843, 0.0434766, 0.017124, 0.0225586, 0.0560889, -0.212835, 7.99968, -6.16, -0.0762939, 0.137329, -0.0762939, 0, 0
138606853, 0.0422461, 0.0141504, 0.0225586, 0.0560889, -0.232406, 8.14891, -6.26519, -0.320435, 0.198364, -0.152588, 0, 0
138606863, 0.0442969, 0.0145605, 0.0247119, 0.0569092, -0.188372, 8.13912, -6.26519, -0.396728, 0.167847, -0.198364, 0, 0
138606873, 0.0434766, 0.0145605, 0.0233789, 0.0569092, -0.112534, 8.07796, -6.27742, -0.198364, 0.335693, -0.274658, 0, 0
138606883, 0.0438867, 0.0167139, 0.0251221, 0.0569092, -0.0464813, 8.06573, -6.31412, 0.0762939, 0.289917, -0.305176, 0, 0
138606893, 0.0438867, 0.0154834, 0.0241992, 0.0573193, 0.00489277, 8.0535, -6.39974, 0.152588, 0.335693, -0.274658, 0, 0
138606903, 0.0426563, 0.0154834, 0.0241992, 0.0577295, 0.0171247, 8.0168, -6.3924, -0.0915527, 0.183105, -0.198364, 0, 0
138606923, 0.0418359, 0.0158936, 0.0221484, 0.0573193, 0.0293566, 8.0486, -6.27987, -0.427246, 0.0915527, 0, 0, 0
138606933, 0.0422461, 0.0125098, 0.0229687, 0.0573193, 0.0244638, 8.09998, -6.2236, -0.350952, 0.0915527, 0.0915527, 0, 0
138606943, 0.0422461, 0.0137402, 0.0247119, 0.0581396, 0.0464813, 8.15869, -6.24317, -0.106812, 0.12207, 0.0305176, 0, 0
138606953, 0.0434766, 0.0163037, 0.0247119, 0.0585498, 0.0684988, 8.20028, -6.27008, 0.0610352, 0.12207, 0.0152588, 0, 0
138606963, 0.0414258, 0.0154834, 0.0241992, 0.0569092, 0.063606, 8.18805, -6.34837, 0.289917, -0.0457764, 0.0457764, 0, 0
138606973, 0.0410156, 0.0154834, 0.0247119, 0.0573193, 0.0929626, 8.16358, -6.35326, 0.228882, -0.0915527, -0.0457764, 0, 0
138606983, 0.0418359, 0.0145605, 0.0247119, 0.0577295, 0.0684988, 8.15869, -6.34837, 0.137329, 0.0762939, -0.12207, 0, 0
138607003, 0.0397852, 0.0141504, 0.0225586, 0.056499, 0, 8.0535, -6.40219, -0.106812, -0.0762939, -0.0762939, 0, 0
138607013, 0.0401953, 0.0145605, 0.0225586, 0.0569092, -0.0782843, 7.89937, -6.41931, -0.0610352, -0.12207, -0.0915527, 0, 0
138607023, 0.0430664, 0.0145605, 0.0237891, 0.0581396, -0.124766, 7.79663, -6.30923, 0.0152588, -0.0762939, -0.0915527, 0, 0
138607033, 0.0434766, 0.0158936, 0.0247119, 0.0581396, -0.166354, 7.8113, -6.23828, 0.198364, -0.0305176, -0.106812, 0, 0
138607043, 0.0414258, 0.0145605, 0.0255322, 0.0581396, -0.159015, 7.95564, -6.16978, 0.198364, 0.0305176, -0.12207, 0, 0
138607053, 0.0414258, 0.0150732, 0.0241992, 0.0581396, -0.117426, 8.09998, -6.20648, -0.0457764, 0.198364, -0.244141, 0, 0
138607063, 0.0438867, 0.0145605, 0.0241992, 0.05896, -0.0758379, 8.01435, -6.32146, -0.350952, 0.137329, -0.335693, 0, 0
138607073, 0.0438867, 0.0179443, 0.0267627, 0.0581396, -0.0220175, 8.01435, -6.48047, -0.534058, 0.137329, -0.183105, 0, 0
138607093, 0.0430664, 0.0163037, 0.0237891, 0.0573193, -0.063606, 7.57156, -6.55142, -0.137329, -0.0610352, 0.0152588, 0, 0
138607103, 0.0430664, 0.0145605, 0.0247119, 0.0585498, -0.134551, 7.70366, -6.49026, 0.305176, -0.12207, 0.12207, 0, 0
138607113, 0.0434766, 0.0163037, 0.0247119, 0.05896, -0.190818, 7.89693, -6.42665, 0.38147, -0.213623, 0.213623, 0, 0
138607123, 0.0422461, 0.0145605, 0.0259424, 0.0581396, -0.200604, 7.99968, -6.38262, 0.106812, -0.167847, 0.198364, 0, 0
138607133, 0.0430664, 0.0145605, 0.0255322, 0.0581396, -0.20305, 8.06084, -6.34347, -0.12207, -0.213623, 0.167847, 0, 0
138607143, 0.0426563, 0.0175342, 0.0237891, 0.0581396, -0.173693, 8.10976, -6.30433, -0.350952, -0.213623, 0.137329, 0, 0
138607153, 0.0426563, 0.0158936, 0.0237891, 0.0560889, -0.105195, 8.11221, -6.24807, -0.274658, -0.106812, 0.0915527, 0, 0
138607173, 0.0418359, 0.0163037, 0.0241992, 0.0556787, -0.0171247, 8.05839, -6.25785, -0.0305176, -0.0457764, -0.0152588, 0, 0
138607183, 0.0422461, 0.0163037, 0.0255322, 0.0569092, -0.00978554, 8.02414, -6.30433, -0.0915527, 0.0610352, -0.0305176, 0, 0
138607193, 0.0418359, 0.0137402, 0.0241992, 0.0573193, -0.0513741, 7.9801, -6.35815, -0.228882, 0.152588, 0.0305176, 0, 0
138607203, 0.0418359, 0.0141504, 0.0263525, 0.0573193, -0.105195, 7.99234, -6.34837, -0.396728, 0.12207, 0.0457764, 0, 0
138607213, 0.0401953, 0.017124, 0.0255322, 0.0573193, -0.163908, 8.01925, -6.30189, -0.320435, 0.228882, 0, 0, 0
138607223, 0.0438867, 0.0145605, 0.0255322, 0.0577295, -0.173693, 8.0535, -6.25051, -0.198364, 0.213623, 0.0762939, 0, 0
138607233, 0.0430664, 0.0145605, 0.0251221, 0.0577295, -0.161461, 8.12444, -6.24562, 0.0457764, 0.244141, 0.0152588, 0, 0
138607243, 0.0422461, 0.0163037, 0.0225586, 0.0585498, -0.134551, 8.16114, -6.26519, 0.0610352, 0.198364, -0.106812, 0, 0
138607263, 0.0442969, 0.0167139, 0.0247119, 0.0598828, -0.095409, 8.00457, -6.4242, -0.137329, 0.167847, 0, 0, 0
138607273, 0.0418359, 0.0163037, 0.0247119, 0.0569092, -0.095409, 7.91895, -6.44867, -0.38147, 0.0915527, 0.0152588, 0, 0
138607283, 0.0430664, 0.0150732, 0.0255322, 0.05896, -0.156569, 7.85045, -6.41931, -0.335693, -0.12207, 0.0915527, 0, 0
138607293, 0.0418359, 0.0150732, 0.0251221, 0.0581396, -0.166354, 7.87246, -6.38506, -0.274658, -0.167847, 0.198364, 0, 0
138607303, 0.0406055, 0.0175342, 0.0255322, 0.0581396, -0.159015, 7.91895, -6.32635, -0.0610352, -0.244141, 0.244141, 0, 0
138607313, 0.0406055, 0.017124, 0.0255322, 0.056499, -0.119873, 7.99478, -6.30923, 0.0610352, -0.335693, 0.167847, 0, 0
138607323, 0.0414258, 0.0187646, 0.0255322, 0.0581396, -0.0366958, 8.03148, -6.25785, 0.0457764, -0.320435, 0.12207, 0, 0
138607343, 0.0418359, 0.0137402, 0.0247119, 0.05896, 0.0538205, 8.07307, -6.21382, 0.0610352, -0.198364, 0.0610352, 0, 0
138607353, 0.0418359, 0.0145605, 0.0237891, 0.05896, 0.0538205, 8.02659, -6.24317, -0.0762939, -0.137329, 0.0305176, 0, 0
138607363, 0.0418359, 0.0163037, 0.0263525, 0.0585498, 0.00489277, 7.9801, -6.29944, -0.0305176, 0.0610352, -0.0610352, 0, 0
138607373, 0.0430664, 0.0167139, 0.0263525, 0.0577295, -0.063606, 7.94586, -6.35081, -0.0915527, 0, -0.0762939, 0, 0
138607383, 0.0406055, 0.0167139, 0.0237891, 0.056499, -0.0880698, 7.94586, -6.40219, -0.0305176, -0.0305176, -0.0457764, 0, 0
138607393, 0.0410156, 0.0167139, 0.0263525, 0.0560889, -0.127212, 7.93362, -6.4291, -0.0762939, 0.0610352, -0.106812, 0, 0
138607403, 0.0434766, 0.0163037, 0.0241992, 0.0577295, -0.129658, 7.93852, -6.45601, -0.106812, -0.0305176, 0.0305176, 0, 0
138607413, 0.0434766, 0.0141504, 0.0263525, 0.0577295, -0.0831771, 7.94341, -6.4927, 0.0152588, 0.0305176, -0.0762939, 0, 0
138607433, 0.0422461, 0.0145605, 0.0229687, 0.0556787, -0.0587132, 7.95075, -6.39974, -0.167847, -0.137329, 0.0305176, 0, 0
138607443, 0.0426563, 0.0145605, 0.0255322, 0.0569092, -0.0733915, 8.01925, -6.34347, -0.350952, -0.213623, -0.0152588, 0, 0
138607453, 0.0414258, 0.0175342, 0.0267627, 0.0581396, -0.0929626, 8.04616, -6.26519, -0.320435, -0.198364, 0.137329, 0, 0
138607463, 0.0414258, 0.0163037, 0.0259424, 0.0581396, -0.124766, 8.04126, -6.21137, -0.442505, -0.137329, 0.167847, 0, 0
138607473, 0.0414258, 0.0150732, 0.0229687, 0.0585498, -0.122319, 8.08041, -6.15266, -0.396728, -0.137329, 0.137329, 0, 0
138607483, 0.0434766, 0.0158936, 0.0229687, 0.05896, -0.117426, 8.11221, -6.11107, -0.396728, -0.137329, 0.106812, 0, 0
138607493, 0.0418359, 0.0158936, 0.0225586, 0.0585498, -0.100302, 8.10732, -6.0915, -0.167847, -0.0305176, 0.0457764, 0, 0
138607513, 0.0410156, 0.0145605, 0.0251221, 0.0573193, -0.0269102, 8.0853, -6.1551, -0.0305176, 0.0610352, 0, 0, 0
138607523, 0.0410156, 0.0141504, 0.0247119, 0.0556787, -0.0122319, 8.06573, -6.20403, 0.0915527, 0.106812, 0, 0, 0
138607533, 0.0426563, 0.0145605, 0.0247119, 0.0581396, 0.0171247, 8.06328, -6.27742, 0.12207, 0.106812, -0.0457764, 0, 0
138607543, 0.0422461, 0.0145605, 0.0237891, 0.0581396, 0.0171247, 8.0535, -6.33124, 0.0915527, 0.12207, -0.0152588, 0, 0
138607553, 0.0401953, 0.0145605, 0.0237891, 0.0585498, -0.00244638, 8.0168, -6.35815, -0.0152588, 0.0152588, -0.0152588, 0, 0
138607563, 0.0414258, 0.0154834, 0.0229687, 0.0585498, 0.031803, 7.98989, -6.39485, -0.0305176, -0.0610352, 0.0610352, 0, 0
138607573, 0.0414258, 0.0145605, 0.0251221, 0.0569092, 0.0269102, 7.985, -6.3924, -0.0305176, -0.0305176, 0.0610352, 0, 0
138607583, 0.0426563, 0.0175342, 0.0251221, 0.0556787, 0.0366958, 8.00457, -6.38996, -0.0305176, 0.0152588, 0.0610352, 0, 0
138607603, 0.0434766, 0.0167139, 0.0259424, 0.0569092, 0.0733915, 7.98744, -6.31901, -0.0305176, -0.0915527, 0.137329, 0, 0
138607613, 0.0418359, 0.0141504, 0.0267627, 0.0573193, 0.063606, 7.9801, -6.30678, -0.0305176, -0.0610352, 0.0457764, 0, 0
138607623, 0.0426563, 0.0163037, 0.0247119, 0.0573193, 0.0366958, 8.00212, -6.2603, 0, -0.0305176, -0.0152588, 0, 0
138607633, 0.0426563, 0.017124, 0.0247119, 0.0577295, 0.0244638, 8.02903, -6.28965, 0, 0.0152588, -0.0152588, 0, 0
138607643, 0.0410156, 0.0175342, 0.0259424, 0.056499, 0.0122319, 8.02414, -6.3288, 0.106812, 0.0610352, -0.0915527, 0, 0
138607653, 0.0426563, 0.0175342, 0.0251221, 0.0598828, 0.00733915, 8.01191, -6.33858, 0.106812, 0.0305176, -0.198364, 0, 0
138607663, 0.0418359, 0.0163037, 0.0259424, 0.060293, -0.00733915, 7.9483, -6.39729, -0.0305176, 0.0915527, -0.152588, 0, 0
138607683, 0.0414258, 0.0158936, 0.0255322, 0.0569092, -0.0293566, 7.91405, -6.44133, -0.167847, 0.0610352, -0.106812, 0, 0
138607693, 0.0418359, 0.0145605, 0.0255322, 0.0577295, -0.031803, 7.90182, -6.41687, -0.0152588, 0.0305176, -0.152588, 0, 0
138607703, 0.0422461, 0.0145605, 0.0255322, 0.0577295, -0.0464813, 7.89937, -6.40708, -0.0610352, 0.0305176, -0.152588, 0, 0
138607713, 0.0426563, 0.0154834, 0.0241992, 0.0573193, -0.0587132, 7.93607, -6.38262, -0.0762939, 0.0457764, -0.0457764, 0, 0
138607723, 0.0426563, 0.017124, 0.0247119, 0.0573193, -0.0587132, 7.97521, -6.34103, -0.198364, 0.0457764, -0.0610352, 0, 0
138607733, 0.0426563, 0.0167139, 0.0263525, 0.0569092, -0.0513741, 8.00212, -6.32146, -0.228882, 0.137329, 0.0152588, 0, 0
138607743, 0.0456299, 0.0175342, 0.0263525, 0.0607031, -0.0807307, 8.03393, -6.27008, -0.274658, 0.106812, 0, 0, 0
138607753, 0.0422461, 0.0137402, 0.0259424, 0.0573193, -0.0856234, 8.02903, -6.27498, -0.305176, 0.12207, 0.0152588, 0, 0
138607773, 0.0426563, 0.0150732, 0.0279932, 0.0577295, -0.095409, 7.99478, -6.31412, -0.106812, 0.0305176, 0.12207, 0, 0
138607783, 0.0426563, 0.017124, 0.0267627, 0.0585498, -0.0978554, 7.98255, -6.33124, -0.0762939, 0.0305176, 0.0457764, 0, 0
138607793, 0.0448096, 0.0191748, 0.0267627, 0.0594727, -0.095409, 7.97032, -6.33858, -0.0305176, 0.0610352, 0.0610352, 0, 0
138607803, 0.0418359, 0.0154834, 0.0247119, 0.0581396, -0.0538205, 7.98989, -6.30433, -0.0610352, 0.0457764, 0.0152588, 0, 0
138607813, 0.0397852, 0.0154834, 0.0251221, 0.0569092, -0.0587132, 8.04126, -6.28231, -0.106812, 0.0305176, 0.0305176, 0, 0
138607823, 0.0434766, 0.0158936, 0.0259424, 0.0581396, -0.0342494, 8.08285, -6.28476, -0.0915527, 0.0305176, 0.0305176, 0, 0
138607833, 0.0418359, 0.0179443, 0.0221484, 0.0581396, -0.0195711, 8.10976, -6.23583, 0.0457764, 0.0152588, 0.0457764, 0, 0
138607853, 0.0418359, 0.0191748, 0.0267627, 0.0594727, 0.0244638, 8.05105, -6.30189, -0.12207, 0.0305176, 0.0152588, 0, 0
138607863, 0.0418359, 0.0191748, 0.0241992, 0.0560889, 0, 8.04616, -6.32146, -0.152588, 0.0457764, 0.0152588, 0, 0
138607873, 0.0448096, 0.0150732, 0.0233789, 0.056499, -0.00978554, 7.99234, -6.30189, -0.167847, 0.0152588, -0.0152588, 0, 0
138607883, 0.0442969, 0.0167139, 0.0237891, 0.056499, -0.0366958, 7.985, -6.30433, -0.0152588, 0, 0, 0, 0
138607893, 0.0442969, 0.0179443, 0.0259424, 0.0573193, -0.0293566, 8.00212, -6.30923, 0.0305176, -0.106812, -0.0305176, 0, 0
138607903, 0.0406055, 0.0158936, 0.0259424, 0.0581396, -0.0440349, 8.02169, -6.30923, 0.152588, -0.0762939, 0.0152588, 0, 0
138607913, 0.0452197, 0.0158936, 0.0255322, 0.0577295, -0.0489277, 8.02169, -6.3239, 0.0610352, -0.0305176, -0.0305176, 0, 0
138607923, 0.0430664, 0.0154834, 0.0247119, 0.0577295, -0.0562668, 8.02169, -6.31167, 0.0305176, -0.12207, -0.12207, 0, 0
138607943, 0.0422461, 0.0183545, 0.0267627, 0.0556787, -0.0978554, 7.99968, -6.34347, -0.0457764, -0.106812, -0.0915527, 0, 0
138607953, 0.0401953, 0.0187646, 0.0267627, 0.0581396, -0.0978554, 7.97032, -6.37038, 0.0305176, -0.0915527, -0.0305176, 0, 0
138607963, 0.0422461, 0.0163037, 0.0241992, 0.056499, -0.117426, 7.96298, -6.38751, 0.0152588, -0.0915527, 0, 0, 0
138607973, 0.0410156, 0.0163037, 0.0247119, 0.0598828, -0.119873, 7.9165, -6.40953, 0.0305176, -0.0457764, -0.0610352, 0, 0
138607983, 0.0430664, 0.017124, 0.0233789, 0.0598828, -0.11498, 7.90916, -6.40219, -0.0610352, -0.106812, -0.0457764, 0, 0
138607993, 0.0430664, 0.0145605, 0.0237891, 0.0594727, -0.14189, 7.93118, -6.41197, -0.0610352, -0.106812, 0.0610352, 0, 0
138608003, 0.0426563, 0.0179443, 0.0237891, 0.0577295, -0.139444, 7.93607, -6.38506, -0.0762939, -0.0610352, 0.0457764, 0, 0
138608023, 0.0430664, 0.017124, 0.0259424, 0.0577295, -0.146783, 7.96787, -6.28721, -0.12207, -0.0762939, 0.0915527, 0, 0
138608033, 0.0410156, 0.0163037, 0.0259424, 0.0556787, -0.14189, 7.985, -6.24317, -0.12207, 0.0457764, 0.0152588, 0, 0
138608043, 0.0452197, 0.0167139, 0.0247119, 0.0556787, -0.139444, 8.04371, -6.23583, -0.12207, 0.198364, 0.0762939, 0, 0
138608053, 0.0452197, 0.0175342, 0.0247119, 0.056499, -0.151676, 8.03637, -6.26274, -0.228882, 0.198364, -0.0305176, 0, 0
138608063, 0.0434766, 0.0163037, 0.0267627, 0.05896, -0.14189, 8.01191, -6.30433, -0.228882, 0.137329, -0.0305176, 0, 0
138608073, 0.0430664, 0.0163037, 0.0217383, 0.0577295, -0.095409, 7.93852, -6.37038, -0.152588, 0.106812, -0.0762939, 0, 0
138608083, 0.0418359, 0.0158936, 0.0247119, 0.0569092, -0.0905162, 7.9165, -6.4291, -0.198364, 0.137329, -0.0152588, 0, 0
138608093, 0.0410156, 0.0154834, 0.0247119, 0.0569092, -0.0978554, 7.90182, -6.43154, -0.152588, 0.12207, 0.0457764, 0, 0
138608113, 0.0434766, 0.0163037, 0.0271729, 0.0581396, -0.0660524, 7.96298, -6.37528, 0, 0.0152588, 0.12207, 0, 0
138608123, 0.0438867, 0.0163037, 0.0251221, 0.0581396, -0.063606, 8.06573, -6.30189, -0.0915527, -0.0457764, 0.152588, 0, 0
138608133, 0.0414258, 0.0137402, 0.0247119, 0.0556787, -0.031803, 8.12444, -6.2603, -0.167847, -0.0305176, 0.152588, 0, 0
138608143, 0.0434766, 0.0141504, 0.0259424, 0.0556787, 0.00978554, 8.1538, -6.21382, -0.305176, -0.12207, 0.0610352, 0, 0
138608153, 0.0434766, 0.0167139, 0.0251221, 0.0598828, 0.0342494, 8.1538, -6.18691, -0.38147, -0.0152588, 0, 0, 0
138608163, 0.0426563, 0.0150732, 0.0251221, 0.0581396, 0.0489277, 8.09264, -6.14776, -0.289917, 0.0915527, 0.0457764, 0, 0
138608173, 0.0401953, 0.0150732, 0.0247119, 0.0577295, 0.0440349, 8.06328, -6.17712, -0.183105, 0.198364, -0.0762939, 0, 0
138608193, 0.0434766, 0.0150732, 0.0259424, 0.0569092, 0.00978554, 8.03637, -6.26519, 0.259399, 0.137329, -0.0610352, 0, 0
138608203, 0.0434766, 0.0167139, 0.0251221, 0.0573193, -0.0342494, 8.05839, -6.34103, 0.152588, 0.152588, -0.0457764, 0, 0
138608213, 0.0414258, 0.0175342, 0.0251221, 0.0552686, -0.0293566, 8.03393, -6.38262, 0.0610352, 0.183105, -0.167847, 0, 0
138608223, 0.0422461, 0.0167139, 0.0241992, 0.0577295, -0.0611596, 7.97032, -6.38751, -0.0457764, 0.0152588, -0.152588, 0, 0
138608233, 0.0422461, 0.0167139, 0.0225586, 0.0594727, -0.0538205, 7.98255, -6.43888, -0.0152588, 0.0457764, -0.0305176, 0, 0
138608243, 0.0414258, 0.0137402, 0.027583, 0.0594727, -0.0513741, 7.97766, -6.40953, -0.137329, -0.106812, -0.0152588, 0, 0
138608253, 0.0448096, 0.0179443, 0.0221484, 0.05896, -0.0758379, 7.9483, -6.38506, -0.0457764, -0.137329, -0.0305176, 0, 0
138608263, 0.0448096, 0.0150732, 0.0221484, 0.0581396, -0.095409, 7.97277, -6.36305, -0.0152588, -0.0457764, 0.0152588, 0, 0
138608283, 0.0422461, 0.0150732, 0.0263525, 0.056499, -0.095409, 7.97521, -6.34837, -0.0915527, -0.213623, 0, 0, 0
138608293, 0.0410156, 0.017124, 0.0233789, 0.0573193, -0.0905162, 7.9801, -6.28476, -0.152588, -0.0915527, 0.0457764, 0, 0
138608303, 0.0418359, 0.0167139, 0.0247119, 0.0573193, -0.0733915, 7.98744, -6.28231, 0.0152588, -0.0457764, -0.0152588, 0, 0
138608313, 0.0418359, 0.0179443, 0.0237891, 0.0581396, -0.0660524, 7.95809, -6.29455, 0.0305176, -0.0457764, 0.0457764, 0, 0
138608323, 0.0426563, 0.0145605, 0.0237891, 0.0594727, -0.0366958, 7.96298, -6.34347, -0.0152588, -0.0305176, -0.0305176, 0, 0
138608333, 0.0414258, 0.0145605, 0.0241992, 0.0573193, -0.0489277, 7.97766, -6.36305, -0.0305176, 0.0915527, -0.0305176, 0, 0
138608343, 0.0422461, 0.0154834, 0.0255322, 0.0581396, -0.0415885, 7.97032, -6.37283, -0.0610352, 0.0610352, 0.0152588, 0, 0
138608353, 0.0442969, 0.0141504, 0.0237891, 0.0581396, -0.0391421, 7.96787, -6.37528, -0.106812, 0.0457764, -0.0305176, 0, 0
138608373, 0.0448096, 0.017124, 0.0247119, 0.0556787, -0.0220175, 7.97766, -6.40708, -0.183105, -0.0152588, 0.0152588, 0, 0
138608383, 0.0434766, 0.017124, 0.0255322, 0.0544482, -0.0293566, 7.9483, -6.40219, -0.167847, 0, 0.0305176, 0, 0
138608393, 0.0430664, 0.0175342, 0.0259424, 0.0573193, -0.0171247, 7.93607, -6.37283, -0.289917, -0.0152588, 0.0152588, 0, 0
138608403, 0.0442969, 0.0158936, 0.0233789, 0.0573193, -0.031803, 7.97766, -6.33858, -0.213623, -0.0305176, 0.0152588, 0, 0
138608413, 0.0442969, 0.0179443, 0.0259424, 0.0594727, -0.0342494, 7.99478, -6.31656, -0.167847, -0.0152588, 0.0457764, 0, 0
138608423, 0.0442969, 0.0179443, 0.0259424, 0.0577295, -0.0146783, 8.00702, -6.28476, -0.198364, 0.0762939, 0.0457764, 0, 0
138608433, 0.0430664, 0.017124, 0.0241992, 0.056499, -0.0513741, 8.06084, -6.25785, -0.106812, 0, 0.0305176, 0, 0
138608453, 0.0448096, 0.0179443, 0.0237891, 0.0585498, -0.0391421, 8.02659, -6.27008, -0.0305176, 0, -0.0457764, 0, 0
138608463, 0.0438867, 0.0158936, 0.0247119, 0.0556787, -0.0415885, 8.0168, -6.28965, -0.0762939, -0.0305176, 0.0305176, 0, 0
138608473, 0.0438867, 0.0163037, 0.0247119, 0.0569092, -0.0562668, 8.00702, -6.27008, -0.12207, -0.0457764, -0.0457764, 0, 0
138608483, 0.0456299, 0.0167139, 0.0237891, 0.0560889, -0.0758379, 8.0168, -6.30189, -0.106812, -0.0305176, 0, 0, 0
138608493, 0.0434766, 0.0167139, 0.0241992, 0.0581396, -0.0758379, 8.01191, -6.29944, -0.0305176, 0.0152588, 0, 0, 0
138608503, 0.0438867, 0.0145605, 0.0229687, 0.0585498, -0.0733915, 8.01925, -6.31656, 0.0305176, -0.0152588, 0, 0, 0
138608513, 0.0422461, 0.0150732, 0.0233789, 0.0585498, -0.0758379, 8.03637, -6.31167, -0.0457764, 0.0152588, 0, 0, 0
138608523, 0.0422461, 0.0154834, 0.0241992, 0.056499, -0.0611596, 8.02169, -6.32146, -0.0610352, 0.0457764, -0.0152588, 0, 0
138608543, 0.0401953, 0.0154834, 0.0263525, 0.0556787, -0.0562668, 8.02659, -6.31167, -0.137329, -0.0610352, -0.0915527, 0, 0
138608553, 0.0406055, 0.0175342, 0.0247119, 0.0577295, -0.0513741, 8.03393, -6.30433, -0.0610352, -0.0457764, 0.0152588, 0, 0
138608563, 0.0456299, 0.0158936, 0.020918, 0.0577295, -0.0513741, 8.0486, -6.29944, 0.0152588, 0, 0.0152588, 0, 0
138608573, 0.0456299, 0.0154834, 0.0213281, 0.0569092, -0.0684988, 8.02414, -6.31167, -0.12207, -0.0305176, -0.0305176, 0, 0
138608583, 0.0418359, 0.0154834, 0.0213281, 0.0573193, -0.0709451, 8.00946, -6.29944, -0.0305176, 0.0152588, 0.0305176, 0, 0
138608593, 0.0414258, 0.0154834, 0.0247119, 0.0577295, -0.0538205, 7.99723, -6.33124, -0.0152588, 0, -0.0305176, 0, 0
138608603, 0.0438867, 0.0183545, 0.0255322, 0.0569092, -0.0733915, 7.98255, -6.33858, -0.0305176, -0.0305176, 0, 0, 0
138608623, 0.0422461, 0.0175342, 0.0229687, 0.0569092, -0.063606, 7.99723, -6.33613, 0, -0.0457764, -0.0305176, 0, 0
138608633, 0.0422461, 0.0141504, 0.0229687, 0.0539355, -0.0709451, 7.99234, -6.35571, 0.0305176, 0.0152588, -0.0305176, 0, 0
138608643, 0.0434766, 0.0158936, 0.0217383, 0.0585498, -0.063606, 7.95809, -6.39485, -0.167847, 0.0915527, -0.0152588, 0, 0
138608653, 0.0438867, 0.0158936, 0.0247119, 0.0577295, -0.0611596, 7.92628, -6.3924, -0.106812, 0.0915527, 0.0305176, 0, 0
138608663, 0.0426563, 0.0167139, 0.0271729, 0.0577295, -0.0538205, 7.93852, -6.38996, -0.106812, -0.0305176, 0.0305176, 0, 0
138608673, 0.0434766, 0.0167139, 0.0233789, 0.0573193, -0.0538205, 7.94096, -6.33124, -0.0915527, 0.0152588, 0.0152588, 0, 0
138608683, 0.0434766, 0.0175342, 0.0233789, 0.056499, -0.0733915, 7.95809, -6.35081, -0.0610352, 0.0915527, 0.0152588, 0, 0
138608693, 0.0426563, 0.0163037, 0.0241992, 0.0539355, -0.0562668, 7.9801, -6.34837, 0, -0.0457764, 0.0152588, 0, 0
138608713, 0.0422461, 0.017124, 0.0247119, 0.05896, -0.0611596, 7.98255, -6.31412, -0.183105, -0.0610352, 0.0762939, 0, 0
138608723, 0.0430664, 0.0145605, 0.0255322, 0.05896, -0.0611596, 7.99478, -6.31412, -0.198364, 0.0152588, 0.0152588, 0, 0
138608733, 0.0430664, 0.0154834, 0.0225586, 0.0573193, -0.0660524, 8.00212, -6.30433, -0.167847, 0.0305176, -0.0305176, 0, 0
138608743, 0.0430664, 0.0137402, 0.0225586, 0.0577295, -0.0587132, 7.99723, -6.29455, -0.0762939, -0.0610352, 0, 0, 0
138608753, 0.0397852, 0.0137402, 0.0213281, 0.0569092, -0.0464813, 8.00212, -6.32635, -0.183105, 0.0305176, 0.0610352, 0, 0
138608763, 0.0434766, 0.0133301, 0.0229687, 0.0556787, -0.0415885, 8.00702, -6.30923, -0.274658, 0.0610352, 0, 0, 0
138608773, 0.0426563, 0.0167139, 0.0247119, 0.0556787, -0.0562668, 8.01191, -6.31656, -0.183105, 0.0915527, 0.0152588, 0, 0
138608793, 0.0434766, 0.017124, 0.0251221, 0.0569092, -0.0587132, 8.03393, -6.29699, -0.0152588, -0.0762939, 0.0457764, 0, 0
138608803, 0.0448096, 0.017124, 0.0251221, 0.0594727, -0.0489277, 8.03637, -6.28476, -0.0305176, 0.0152588, 0.0305176, 0, 0
138608813, 0.0422461, 0.0154834, 0.0251221, 0.0569092, -0.0415885, 8.05839, -6.27987, -0.0915527, -0.0457764, -0.0152588, 0, 0
138608823, 0.0426563, 0.0150732, 0.0237891, 0.0569092, -0.0513741, 8.06328, -6.27742, -0.0915527, 0.0305176, 0.0762939, 0, 0
138608833, 0.0422461, 0.0145605, 0.0259424, 0.0556787, -0.0440349, 8.07551, -6.26274, -0.152588, 0.0610352, 0.0610352, 0, 0
138608843, 0.0422461, 0.0154834, 0.0259424, 0.0544482, -0.0513741, 8.06818, -6.25785, -0.12207, -0.0152588, 0.0305176, 0, 0
138608853, 0.0434766, 0.0154834, 0.0229687, 0.0548584, -0.0611596, 8.02903, -6.27987, -0.0152588, -0.0457764, -0.0457764, 0, 0
138608863, 0.0434766, 0.0145605, 0.0229687, 0.0556787, -0.0611596, 8.0168, -6.30923, 0.0610352, 0, -0.0152588, 0, 0
138608883, 0.0406055, 0.0158936, 0.0255322, 0.0581396, -0.0489277, 8.03637, -6.31901, 0.0457764, 0.0762939, -0.0457764, 0, 0
138608893, 0.0406055, 0.0175342, 0.0255322, 0.0560889, -0.0391421, 8.03637, -6.34347, -0.0457764, -0.0305176, -0.0305176, 0, 0
138608903, 0.0422461, 0.017124, 0.0241992, 0.0581396, -0.0440349, 8.00946, -6.35815, -0.12207, -0.0762939, 0, 0, 0
138608913, 0.0422461, 0.017124, 0.0247119, 0.0581396, -0.031803, 7.99478, -6.37528, 0.0305176, -0.0152588, -0.0152588, 0, 0
138608923, 0.0414258, 0.0179443, 0.0251221, 0.0560889, -0.0342494, 7.95809, -6.35571, -0.0915527, -0.0152588, -0.0305176, 0, 0
138608933, 0.0448096, 0.017124, 0.0233789, 0.0560889, -0.031803, 7.98744, -6.3288, -0.0457764, -0.0457764, -0.0610352, 0, 0
138608943, 0.0448096, 0.0154834, 0.0237891, 0.0573193, -0.0391421, 7.99478, -6.33124, -0.152588, -0.0610352, -0.0762939, 0, 0
138608963, 0.0442969, 0.0154834, 0.0233789, 0.0569092, -0.0195711, 7.98255, -6.33124, -0.0915527, 0.0457764, -0.12207, 0, 0
138608973, 0.0426563, 0.0167139, 0.0221484, 0.056499, -0.0366958, 7.96053, -6.34347, -0.106812, 0, -0.0610352, 0, 0
138608983, 0.0434766, 0.0150732, 0.0229687, 0.056499, -0.0489277, 7.96543, -6.35815, -0.0457764, -0.0152588, -0.0610352, 0, 0
138608993, 0.0434766, 0.0154834, 0.0233789, 0.0569092, -0.0562668, 7.95075, -6.36305, -0.0152588, -0.0152588, 0.0152588, 0, 0
138609003, 0.0430664, 0.0145605, 0.0233789, 0.0598828, -0.0807307, 7.95319, -6.37772, -0.0152588, 0.0610352, -0.0457764, 0, 0
138609013, 0.0438867, 0.0145605, 0.0229687, 0.0573193, -0.0856234, 7.9483, -6.37038, -0.0610352, -0.0610352, -0.0152588, 0, 0
138609023, 0.0410156, 0.0154834, 0.0247119, 0.05896, -0.0880698, 7.96787, -6.37772, -0.137329, 0.0152588, 0, 0, 0
138609033, 0.0434766, 0.0158936, 0.0217383, 0.05896, -0.110087, 7.9483, -6.34837, -0.106812, -0.0457764, -0.0152588, 0, 0
138609053, 0.0410156, 0.0167139, 0.0247119, 0.0577295, -0.095409, 7.95809, -6.33613, -0.12207, 0, 0, 0, 0
138609063, 0.0414258, 0.0167139, 0.0271729, 0.0573193, -0.0880698, 8.00702, -6.33124, -0.152588, 0.0762939, 0.0610352, 0, 0
138609073, 0.0410156, 0.0158936, 0.0237891, 0.0573193, -0.0880698, 8.02414, -6.29699, -0.0915527, 0.0305176, 0.0610352, 0, 0
138609083, 0.0422461, 0.0158936, 0.0221484, 0.0573193, -0.0880698, 8.03148, -6.30433, -0.289917, 0.0152588, -0.0152588, 0, 0
138609093, 0.0434766, 0.0141504, 0.0263525, 0.0585498, -0.0513741, 8.03148, -6.2921, -0.167847, 0.106812, -0.0457764, 0, 0
138609103, 0.0434766, 0.0158936, 0.0263525, 0.056499, -0.0684988, 8.01925, -6.29699, -0.137329, 0.0762939, 0, 0, 0
138609113, 0.0430664, 0.0183545, 0.0237891, 0.0581396, -0.0391421, 8.00212, -6.30189, -0.0762939, 0.0610352, 0.0610352, 0, 0
138609133, 0.0430664, 0.0167139, 0.0213281, 0.0577295, -0.0391421, 8.0168, -6.32635, -0.0152588, 0.0457764, 0, 0, 0
138609143, 0.0448096, 0.0150732, 0.0241992, 0.0577295, -0.0269102, 8.01435, -6.32146, -0.137329, -0.0152588, 0, 0, 0
138609153, 0.0448096, 0.0150732, 0.0237891, 0.0581396, -0.0269102, 8.01435, -6.32635, -0.12207, -0.0152588, 0.0762939, 0, 0
138609163, 0.0448096, 0.0167139, 0.0237891, 0.0585498, -0.0146783, 8.04371, -6.31167, -0.137329, -0.0152588, 0.0762939, 0, 0
138609173, 0.0430664, 0.0167139, 0.0237891, 0.0573193, -0.0146783, 8.06328, -6.31167, -0.137329, 0.0305176, -0.0152588, 0, 0
138609183, 0.0430664, 0.0154834, 0.0233789, 0.0573193, -0.0171247, 8.04616, -6.30678, -0.106812, 0.0610352, 0.0152588, 0, 0
138609193, 0.0401953, 0.0150732, 0.0237891, 0.0573193, -0.0220175, 8.03637, -6.31656, -0.0915527, 0.0457764, -0.0305176, 0, 0
138609203, 0.0401953, 0.0163037, 0.0213281, 0.0577295, -0.0171247, 8.02414, -6.2921, -0.213623, -0.0915527, -0.0305176, 0, 0
138609223, 0.0418359, 0.0145605, 0.0225586, 0.0581396, -0.0342494, 8.00457, -6.2921, -0.0915527, -0.0610352, -0.0152588, 0, 0
138609233, 0.0418359, 0.0137402, 0.0241992, 0.0581396, -0.0366958, 8.0168, -6.28231, -0.0152588, -0.0610352, -0.0305176, 0, 0
138609243, 0.0418359, 0.0179443, 0.0237891, 0.0581396, -0.0366958, 8.04126, -6.28231, 0.0457764, -0.0305176, -0.0457764, 0, 0
138609253, 0.0418359, 0.0163037, 0.0241992, 0.0581396, -0.0366958, 8.02169, -6.2921, -0.0305176, -0.0762939, -0.0762939, 0, 0
138609263, 0.0418359, 0.0175342, 0.0241992, 0.0560889, -0.0415885, 8.00946, -6.28721, -0.0762939, -0.0305176, -0.106812, 0, 0
138609273, 0.0430664, 0.0175342, 0.0251221, 0.0569092, -0.0587132, 7.99234, -6.3239, -0.0762939, -0.0152588, -0.0610352, 0, 0
138609283, 0.0418359, 0.0175342, 0.0247119, 0.0577295, -0.0611596, 7.95809, -6.34347, -0.167847, -0.0610352, 0.0152588, 0, 0
138609303, 0.0434766, 0.0150732, 0.0213281, 0.0560889, -0.102748, 7.95809, -6.34592, 0.0610352, -0.0610352, 0.0152588, 0, 0
138609313, 0.0434766, 0.0167139, 0.0213281, 0.0577295, -0.105195, 7.9483, -6.35815, -0.0152588, 0.0762939, 0.0152588, 0, 0
138609323, 0.0442969, 0.0150732, 0.0251221, 0.0556787, -0.110087, 7.95809, -6.33613, -0.152588, -0.0152588, 0.0457764, 0, 0
138609333, 0.0422461, 0.0150732, 0.0237891, 0.056499, -0.110087, 7.97277, -6.34103, -0.0610352, 0.0610352, 0.0152588, 0, 0
138609343, 0.0418359, 0.0167139, 0.0233789, 0.0581396, -0.0978554, 7.95809, -6.34347, -0.167847, 0, 0.0152588, 0, 0
138609353, 0.0418359, 0.0163037, 0.0217383, 0.0581396, -0.0978554, 7.96298, -6.3606, -0.0915527, 0.0457764, 0.106812, 0, 0
138609363, 0.0418359, 0.0150732, 0.0225586, 0.056499, -0.095409, 7.96787, -6.36549, -0.12207, 0.0305176, 0.0305176, 0, 0
138609373, 0.0442969, 0.0163037, 0.0225586, 0.0577295, -0.0782843, 7.97032, -6.35571, -0.0915527, 0.0305176, 0.0610352, 0, 0
138609393, 0.0442969, 0.0150732, 0.0233789, 0.0560889, -0.0733915, 7.97521, -6.36794, -0.0610352, 0.0152588, -0.0305176, 0, 0
138609403, 0.0410156, 0.0145605, 0.0241992, 0.0560889, -0.0684988, 7.98255, -6.37283, -0.183105, 0, 0.0762939, 0, 0
138609413, 0.04604, 0.0154834, 0.0200977, 0.056499, -0.0489277, 7.98744, -6.3288, -0.167847, 0, 0.0762939, 0, 0
138609423, 0.04604, 0.0163037, 0.0200977, 0.0573193, -0.0342494, 7.98255, -6.34103, -0.12207, 0.0457764, 0, 0, 0
138609433, 0.0401953, 0.0163037, 0.0205078, 0.056499, -0.0122319, 8.00457, -6.32146, -0.106812, 0, 0.0610352, 0, 0
138609443, 0.0414258, 0.0163037, 0.0241992, 0.0556787, -0.00733915, 8.04616, -6.29699, -0.198364, 0.0152588, -0.0305176, 0, 0
138609453, 0.0410156, 0.0163037, 0.0241992, 0.0556787, -0.0122319, 8.04616, -6.29944, -0.228882, 0.0305176, -0.0305176, 0, 0
138609473, 0.0418359, 0.017124, 0.0237891, 0.0560889, -0.00733915, 8.0486, -6.27498, -0.12207, 0.0762939, 0.0152588, 0, 0
138609483, 0.0422461, 0.017124, 0.0237891, 0.0585498, -0.00733915, 8.03637, -6.30189, -0.106812, 0.0305176, -0.0610352, 0, 0
138609493, 0.0414258, 0.0150732, 0.0237891, 0.0581396, -0.0122319, 8.01435, -6.28721, -0.12207, 0.0152588, -0.0152588, 0, 0
138609503, 0.0448096, 0.0150732, 0.0217383, 0.0581396, -0.0171247, 8.02659, -6.28476, -0.12207, -0.0305176, -0.0457764, 0, 0
138609513, 0.0422461, 0.017124, 0.0217383, 0.0581396, -0.0538205, 8.01925, -6.29699, -0.0915527, -0.0152588, 0, 0, 0
138609523, 0.0422461, 0.0167139, 0.0217383, 0.0573193, -0.0342494, 8.0168, -6.30678, 0.0457764, -0.0305176, -0.0305176, 0, 0
138609533, 0.0422461, 0.0158936, 0.0233789, 0.056499, -0.0513741, 8.02169, -6.28965, -0.0457764, 0.0152588, -0.0305176, 0, 0
138609543, 0.0448096, 0.0158936, 0.0221484, 0.0569092, -0.0440349, 8.02414, -6.28965, -0.0610352, -0.0457764, 0, 0, 0
138609563, 0.0422461, 0.0150732, 0.0259424, 0.0556787, -0.0660524, 8.02414, -6.29944, -0.0610352, -0.0610352, 0.0152588, 0, 0
138609573, 0.0422461, 0.0141504, 0.0237891, 0.0585498, -0.0660524, 8.01925, -6.31656, -0.0610352, -0.0915527, 0.0305176, 0, 0
138609583, 0.0422461, 0.0154834, 0.0237891, 0.0560889, -0.0978554, 8.00457, -6.29699, -0.0762939, -0.0457764, 0.0610352, 0, 0
138609593, 0.0414258, 0.0154834, 0.0225586, 0.0552686, -0.095409, 7.985, -6.30923, -0.0915527, 0, 0.0610352, 0, 0
138609603, 0.0418359, 0.0137402, 0.0237891, 0.0556787, -0.0905162, 8.00212, -6.31656, -0.137329, 0.0152588, 0.0457764, 0, 0
138609613, 0.0410156, 0.0167139, 0.0229687, 0.0556787, -0.095409, 7.99968, -6.28965, -0.0305176, 0.0152588, 0, 0, 0
138609623, 0.0410156, 0.0133301, 0.0225586, 0.0573193, -0.102748, 8.00212, -6.31167, -0.0152588, 0.0305176, 0, 0, 0
138609643, 0.0397852, 0.0163037, 0.0241992, 0.0594727, -0.0562668, 7.99968, -6.34347, -0.0610352, 0.0610352, 0.0610352, 0, 0
138609653, 0.0422461, 0.0154834, 0.0237891, 0.056499, -0.0562668, 7.97521, -6.35081, -0.0457764, 0.0305176, 0, 0, 0
138609663, 0.0426563, 0.0167139, 0.0247119, 0.056499, -0.0489277, 7.97032, -6.37528, -0.0457764, -0.0915527, 0, 0, 0
138609673, 0.0426563, 0.0158936, 0.0259424, 0.0560889, -0.0415885, 7.97032, -6.39729, -0.0305176, -0.0915527, 0, 0, 0
138609683, 0.0426563, 0.0137402, 0.0259424, 0.0556787, -0.0366958, 7.95075, -6.40708, -0.0610352, 0, 0, 0, 0
138609693, 0.0434766, 0.0137402, 0.0241992, 0.056499, -0.0464813, 7.95319, -6.38017, -0.0610352, -0.0305176, 0.0152588, 0, 0
138609703, 0.0456299, 0.0154834, 0.0213281, 0.0552686, -0.031803, 7.95564, -6.37283, -0.12207, -0.0915527, 0.0152588, 0, 0
138609713, 0.0406055, 0.017124, 0.0229687, 0.0552686, -0.0342494, 7.98744, -6.35081, -0.167847, 0, 0.0457764, 0, 0
138609733, 0.0410156, 0.0133301, 0.0229687, 0.0569092, -0.0342494, 7.99968, -6.31901, -0.137329, -0.0457764, -0.0457764, 0, 0
138609743, 0.0426563, 0.0133301, 0.0229687, 0.0552686, -0.00978554, 7.99968, -6.31901, -0.0762939, 0.0152588, -0.0610352, 0, 0
138609753, 0.0438867, 0.0129199, 0.0241992, 0.0560889, -0.0146783, 8.00457, -6.30923, -0.0610352, 0.0305176, -0.0305176, 0, 0
138609763, 0.0410156, 0.0158936, 0.0200977, 0.0552686, -0.0269102, 8.01191, -6.31901, -0.0915527, -0.0152588, -0.0305176, 0, 0
138609773, 0.0438867, 0.0163037, 0.0241992, 0.0552686, -0.0440349, 7.99723, -6.3239, -0.183105, 0.0610352, 0.0915527, 0, 0
138609783, 0.0438867, 0.0167139, 0.0237891, 0.0556787, -0.0611596, 7.98255, -6.33369, -0.0915527, 0.0152588, 0, 0, 0
138609793, 0.0414258, 0.0167139, 0.0237891, 0.0560889, -0.0733915, 7.98989, -6.31167, -0.12207, 0, -0.0152588, 0, 0
138609803, 0.0430664, 0.0167139, 0.0233789, 0.0556787, -0.0880698, 7.99234, -6.3288, -0.0610352, -0.0305176, -0.0152588, 0, 0
138609823, 0.0410156, 0.0141504, 0.0247119, 0.0577295, -0.0587132, 7.99723, -6.27253, -0.106812, -0.0610352, 0, 0, 0
138609833, 0.0426563, 0.0154834, 0.019585, 0.0577295, -0.0782843, 8.02659, -6.2554, -0.0457764, -0.0762939, -0.0915527, 0, 0
138609843, 0.0426563, 0.0158936, 0.019585, 0.0544482, -0.0782843, 8.02169, -6.26274, -0.106812, 0, 0, 0, 0
138609853, 0.0430664, 0.0158936, 0.0233789, 0.0573193, -0.0831771, 8.02414, -6.25051, -0.0915527, 0.12207, 0.0152588, 0, 0
138609863, 0.0418359, 0.0150732, 0.0237891, 0.0569092, -0.0831771, 8.00702, -6.24562, -0.12207, -0.0305176, 0, 0, 0
138609873, 0.0442969, 0.0154834, 0.0233789, 0.0569092, -0.0831771, 8.01435, -6.2921, -0.0457764, 0.0305176, 0.0305176, 0, 0
138609883, 0.0414258, 0.0158936, 0.0251221, 0.0573193, -0.0660524, 8.00702, -6.29699, -0.0152588, 0.0152588, -0.0305176, 0, 0
138609903, 0.0456299, 0.0145605, 0.0241992, 0.0544482, -0.0562668, 8.00946, -6.31656, 0.0152588, -0.0305176, 0.0762939, 0, 0
138609913, 0.0430664, 0.0167139, 0.0247119, 0.0581396, -0.0366958, 7.99968, -6.33858, -0.0152588, -0.0305176, 0.0762939, 0, 0
138609923, 0.0410156, 0.0167139, 0.0251221, 0.0581396, -0.0391421, 8.00702, -6.37283, 0.0305176, -0.0305176, 0.0152588, 0, 0
138609933, 0.0452197, 0.0167139, 0.0229687, 0.056499, -0.0391421, 8.01435, -6.37038, -0.0152588, 0, 0.0457764, 0, 0
138609943, 0.0452197, 0.0145605, 0.0229687, 0.0585498, -0.0415885, 8.0168, -6.35815, -0.106812, 0.0457764, 0.0152588, 0, 0
138609953, 0.0434766, 0.0145605, 0.0221484, 0.0607031, -0.0342494, 8.01435, -6.35326, -0.12207, 0, 0.0305176, 0, 0
138609963, 0.0418359, 0.0158936, 0.0241992, 0.0560889, -0.0269102, 8.02659, -6.34592, -0.106812, -0.0610352, -0.0610352, 0, 0
138609973, 0.0414258, 0.0167139, 0.0241992, 0.0560889, -0.0464813, 8.00457, -6.33369, -0.213623, 0.0457764, -0.0152588, 0, 0
138609993, 0.0410156, 0.0137402, 0.0225586, 0.0560889, -0.0342494, 7.99968, -6.33124, -0.106812, -0.0152588, -0.0152588, 0, 0
138610003, 0.0434766, 0.0158936, 0.0225586, 0.056499, -0.0342494, 7.98744, -6.31412, -0.0915527, 0.0152588, -0.0762939, 0, 0
138610013, 0.0426563, 0.0158936, 0.0247119, 0.05896, -0.0269102, 7.99723, -6.31656, -0.12207, 0.0305176, -0.0457764, 0, 0
138610023, 0.0434766, 0.0163037, 0.0237891, 0.0581396, -0.0366958, 7.99723, -6.32635, -0.152588, 0.0915527, -0.0305176, 0, 0
138610033, 0.0426563, 0.0129199, 0.0241992, 0.0581396, -0.0293566, 7.97521, -6.34837, -0.167847, -0.0305176, -0.0305176, 0, 0
138610043, 0.0410156, 0.0145605, 0.0217383, 0.0594727, -0.0489277, 7.97277, -6.33369, -0.0610352, -0.0305176, -0.0152588, 0, 0
138610053, 0.0410156, 0.0175342, 0.0217383, 0.0569092, -0.063606, 7.97032, -6.35081, -0.0762939, -0.0152588, 0, 0, 0
138610073, 0.0438867, 0.0150732, 0.0247119, 0.0577295, -0.0758379, 7.96298, -6.35571, 0, -0.0152588, 0.0457764, 0, 0
138610083, 0.0397852, 0.0145605, 0.0237891, 0.0577295, -0.0660524, 7.99234, -6.33858, 0.0152588, -0.12207, -0.0152588, 0, 0
138610093, 0.0422461, 0.0154834, 0.0229687, 0.0577295, -0.0709451, 7.9801, -6.33124, 0.0305176, -0.0305176, 0.0305176, 0, 0
138610103, 0.0422461, 0.0141504, 0.0229687, 0.0577295, -0.0758379, 8.0168, -6.33124, -0.0915527, -0.0762939, 0.0305176, 0, 0
138610113, 0.0442969, 0.0141504, 0.0233789, 0.0573193, -0.0709451, 8.02169, -6.31656, -0.137329, -0.0152588, 0.0305176, 0, 0
138610123, 0.0452197, 0.0175342, 0.0221484, 0.0598828, -0.0782843, 8.02903, -6.2921, -0.198364, 0.0305176, 0.0457764, 0, 0
138610133, 0.0434766, 0.0154834, 0.0200977, 0.0598828, -0.0831771, 8.02414, -6.29455, -0.228882, -0.12207, 0.0152588, 0, 0
138610143, 0.0418359, 0.0187646, 0.0247119, 0.0569092, -0.0782843, 8.03148, -6.28721, -0.152588, 0.0610352, 0, 0, 0
138610163, 0.0410156, 0.0154834, 0.0263525, 0.0573193, -0.0562668, 8.0168, -6.27742, -0.228882, 0.106812, 0.0305176, 0, 0
138610173, 0.0430664, 0.0150732, 0.0251221, 0.0598828, -0.0562668, 8.00702, -6.26764, -0.12207, 0.0457764, 0.0152588, 0, 0
138610183, 0.0442969, 0.0150732, 0.0233789, 0.0598828, -0.0342494, 8.01435, -6.27987, -0.0762939, 0.0152588, -0.0610352, 0, 0
138610193, 0.0426563, 0.0158936, 0.0255322, 0.0581396, -0.0366958, 8.04126, -6.28476, -0.0762939, 0.137329, -0.0305176, 0, 0
138610203, 0.0414258, 0.0141504, 0.0247119, 0.0556787, -0.0489277, 8.02903, -6.30189, -0.152588, 0.167847, 0, 0, 0
138610213, 0.0414258, 0.0145605, 0.0247119, 0.0560889, -0.0415885, 8.02169, -6.30189, -0.12207, 0.0610352, 0.0305176, 0, 0
138610223, 0.0406055, 0.0145605, 0.0251221, 0.0577295, -0.0464813, 7.99478, -6.32635, 0, 0, -0.0152588, 0, 0
138610243, 0.0414258, 0.0183545, 0.0229687, 0.0573193, -0.0415885, 7.98989, -6.34837, 0.0457764, -0.0610352, 0.0305176, 0, 0
138610253, 0.0410156, 0.0154834, 0.0271729, 0.0581396, -0.0489277, 7.99723, -6.34103, 0.0610352, -0.0610352, -0.0610352, 0, 0
138610263, 0.0410156, 0.0145605, 0.0271729, 0.0573193, -0.0489277, 7.99478, -6.35571, 0.0457764, -0.0915527, 0.0305176, 0, 0
138610273, 0.0422461, 0.0145605, 0.0225586, 0.0627539, -0.0513741, 7.99234, -6.37772, 0.0457764, -0.0457764, 0.0152588, 0, 0
138610283, 0.0426563, 0.0167139, 0.0271729, 0.0577295, -0.0562668, 7.99968, -6.36549, 0.0305176, -0.0457764, -0.0152588, 0, 0
138610293, 0.0434766, 0.0167139, 0.0229687, 0.0577295, -0.0684988, 8.01925, -6.37772, 0, -0.12207, -0.0762939, 0, 0
138610303, 0.0430664, 0.0158936, 0.0229687, 0.0560889, -0.0440349, 8.0168, -6.3924, -0.0152588, -0.0305176, 0.0305176, 0, 0
138610313, 0.0430664, 0.0150732, 0.0229687, 0.0556787, -0.0513741, 8.01191, -6.3606, -0.137329, -0.0457764, -0.0305176, 0, 0
138610333, 0.0401953, 0.0150732, 0.0237891, 0.0581396, -0.0709451, 7.98744, -6.33613, -0.289917, -0.0305176, 0.0305176, 0, 0
138610343, 0.0414258, 0.0133301, 0.0233789, 0.0581396, -0.0562668, 7.99968, -6.33613, -0.213623, 0.0457764, -0.0915527, 0, 0
138610353, 0.0422461, 0.0154834, 0.0255322, 0.05896, -0.0562668, 7.96298, -6.32635, -0.198364, 0, 0, 0, 0
138610363, 0.0422461, 0.0141504, 0.0255322, 0.0552686, -0.0489277, 7.96298, -6.31167, -0.167847, 0.12207, -0.0762939, 0, 0
138610373, 0.0406055, 0.0141504, 0.0229687, 0.0569092, -0.0562668, 7.96787, -6.33124, -0.0610352, 0.0152588, 0, 0, 0
138610383, 0.0438867, 0.0150732, 0.0255322, 0.0577295, -0.0611596, 7.985, -6.30678, -0.137329, 0.0457764, -0.0152588, 0, 0
138610393, 0.0414258, 0.0163037, 0.0259424, 0.0577295, -0.0709451, 7.98255, -6.34347, -0.0915527, -0.0457764, 0.0152588, 0, 0
138610413, 0.0414258, 0.0175342, 0.0233789, 0.0573193, -0.0807307, 7.99723, -6.29455, -0.137329, -0.0457764, 0, 0, 0
138610423, 0.0414258, 0.0175342, 0.0233789, 0.0573193, -0.0782843, 7.9801, -6.29455, -0.0915527, -0.0762939, 0.0152588, 0, 0
138610433, 0.0414258, 0.0145605, 0.0229687, 0.0556787, -0.0684988, 7.96787, -6.29455, -0.12207, -0.0457764, 0.0610352, 0, 0
138610443, 0.0422461, 0.0141504, 0.0233789, 0.0560889, -0.0538205, 7.98744, -6.26519, 0, -0.12207, 0.0762939, 0, 0
138610453, 0.0414258, 0.0158936, 0.0225586, 0.0560889, -0.0513741, 8.01925, -6.2554, 0.0152588, -0.0457764, 0.0152588, 0, 0
138610463, 0.0434766, 0.0158936, 0.0237891, 0.0581396, -0.0538205, 8.0535, -6.23339, 0.0152588, -0.0762939, 0.0762939, 0, 0
138610473, 0.0434766, 0.0154834, 0.0237891, 0.0560889, -0.0538205, 8.07062, -6.24317, 0.0457764, 0.0305176, 0.0305176, 0, 0
138610483, 0.0430664, 0.0154834, 0.0229687, 0.0552686, -0.0538205, 8.07796, -6.2603, -0.0152588, 0.0610352, -0.0305176, 0, 0
138610503, 0.0414258, 0.0150732, 0.0237891, 0.0594727, -0.0195711, 8.02169, -6.32146, -0.152588, 0.106812, 0, 0, 0
138610513, 0.0410156, 0.0150732, 0.0259424, 0.0560889, -0.0146783, 7.99234, -6.3606, -0.0762939, 0.0457764, 0.0152588, 0, 0
138610523, 0.0410156, 0.0154834, 0.0259424, 0.0581396, -0.031803, 8.01435, -6.35815, -0.0305176, 0.0457764, -0.0457764, 0, 0
138610533, 0.0426563, 0.0154834, 0.0213281, 0.0581396, -0.0391421, 8.01435, -6.35815, -0.0305176, 0.0152588, -0.0610352, 0, 0
138610543, 0.0418359, 0.0154834, 0.0263525, 0.0581396, -0.0366958, 8.00946, -6.36794, -0.0152588, -0.0152588, 0, 0, 0
138610553, 0.0401953, 0.0175342, 0.0233789, 0.0581396, -0.0415885, 8.02414, -6.35571, -0.0152588, 0.0305176, -0.0762939, 0, 0
138610563, 0.04604, 0.0154834, 0.0259424, 0.0573193, -0.0464813, 8.03393, -6.36794, -0.0915527, -0.0305176, -0.0457764, 0, 0
138610583, 0.0410156, 0.0158936, 0.0233789, 0.056499, -0.031803, 8.03393, -6.30678, -0.198364, -0.0305176, -0.0152588, 0, 0
138610593, 0.0414258, 0.0125098, 0.0229687, 0.0581396, -0.0342494, 8.02169, -6.29699, -0.152588, 0.0610352, -0.0305176, 0, 0
138610603, 0.0426563, 0.0167139, 0.0225586, 0.0581396, -0.0366958, 8.01925, -6.26274, -0.106812, -0.0610352, -0.0457764, 0, 0
138610613, 0.0422461, 0.0154834, 0.0233789, 0.060293, -0.0440349, 8.02903, -6.2554, -0.213623, -0.0762939, -0.0915527, 0, 0
138610623, 0.0414258, 0.0150732, 0.0229687, 0.056499, -0.0929626, 7.90182, -6.41687, 0.0610352, 0.0457764, -0.0305176, 0, 0
138610653, 0.0448096, 0.0154834, 0.0241992, 0.0581396, -0.102748, 7.95075, -6.38506, 0.0305176, -0.106812, -0.0610352, 0, 0
138610663, 0.0426563, 0.0167139, 0.0247119, 0.0581396, -0.112534, 7.98989, -6.36305, -0.0152588, 0.0305176, 0.0305176, 0, 0
138610673, 0.0418359, 0.0158936, 0.0241992, 0.0585498, -0.105195, 7.97277, -6.38506, -0.0305176, 0.0152588, -0.0305176, 0, 0
138610693, 0.0438867, 0.0175342, 0.0247119, 0.0539355, -0.0611596, 7.93118, -6.34592, -0.289917, -0.0305176, 0.0915527, 0, 0
138610703, 0.0414258, 0.0163037, 0.0255322, 0.0577295, -0.063606, 7.93607, -6.32146, -0.228882, 0.0152588, 0.12207, 0, 0
138610713, 0.0434766, 0.0179443, 0.0247119, 0.0577295, -0.0562668, 7.98255, -6.28721, -0.137329, 0.0305176, 0.0610352, 0, 0
138610723, 0.0426563, 0.017124, 0.0225586, 0.0569092, -0.0513741, 8.02414, -6.25785, 0, -0.0305176, 0.0152588, 0, 0
138610733, 0.0426563, 0.0163037, 0.0225586, 0.0573193, -0.0464813, 8.04616, -6.27498, -0.0305176, 0.0762939, -0.0152588, 0, 0
138610743, 0.0434766, 0.0163037, 0.0255322, 0.0573193, -0.063606, 8.05105, -6.30433, -0.106812, 0.0610352, 0.0457764, 0, 0
138610753, 0.0406055, 0.0163037, 0.0251221, 0.0581396, -0.0513741, 8.02169, -6.35571, -0.152588, -0.0305176, -0.0152588, 0, 0
138610763, 0.0392725, 0.0163037, 0.0251221, 0.0581396, -0.0415885, 7.99478, -6.34347, -0.183105, 0.0305176, 0.0152588, 0, 0
138610783, 0.0434766, 0.0175342, 0.0237891, 0.05896, -0.0562668, 7.99478, -6.34592, -0.0915527, 0, 0.0457764, 0, 0
138610793, 0.0430664, 0.0175342, 0.0229687, 0.056499, -0.063606, 8.02169, -6.33858, 0.0152588, -0.0152588, 0.0610352, 0, 0
138610803, 0.0418359, 0.0154834, 0.0213281, 0.0577295, -0.0758379, 8.04126, -6.32146, -0.0915527, -0.0457764, 0.0762939, 0, 0
138610813, 0.0426563, 0.0125098, 0.0241992, 0.0577295, -0.0538205, 8.05594, -6.3288, -0.183105, -0.0610352, 0.0610352, 0, 0
138610823, 0.0414258, 0.0154834, 0.0267627, 0.0598828, -0.0415885, 8.06573, -6.30678, -0.0610352, -0.0915527, 0.0915527, 0, 0
138610833, 0.0422461, 0.0145605, 0.0229687, 0.0569092, -0.0587132, 8.07062, -6.29455, -0.0762939, 0.0305176, 0.0152588, 0, 0
138610843, 0.0422461, 0.0145605, 0.0229687, 0.056499, -0.0342494, 8.06573, -6.30433, -0.0762939, -0.0457764, -0.0152588, 0, 0
138610863, 0.0430664, 0.0150732, 0.0247119, 0.0585498, -0.0538205, 7.99723, -6.32146, -0.167847, -0.0610352, 0.0457764, 0, 0
138610873, 0.0426563, 0.0163037, 0.0213281, 0.0585498, -0.0782843, 7.97521, -6.31901, -0.137329, 0, -0.0152588, 0, 0
138610883, 0.0397852, 0.0179443, 0.0251221, 0.0573193, -0.0782843, 7.96787, -6.3239, -0.0762939, -0.167847, 0, 0, 0
138610893, 0.0397852, 0.0158936, 0.0251221, 0.0573193, -0.0660524, 7.97032, -6.31412, -0.0610352, -0.0610352, -0.0152588, 0, 0
138610903, 0.0422461, 0.0158936, 0.0237891, 0.0594727, -0.0782843, 7.97766, -6.32635, -0.0152588, 0.0152588, 0.0610352, 0, 0
138610913, 0.0434766, 0.0145605, 0.0221484, 0.0581396, -0.0464813, 7.99723, -6.31656, -0.0152588, -0.0610352, 0.0152588, 0, 0
138610923, 0.0414258, 0.017124, 0.0233789, 0.0581396, -0.0440349, 7.99478, -6.31412, -0.0610352, -0.0305176, 0.0152588, 0, 0
138610933, 0.0410156, 0.0183545, 0.0263525, 0.0581396, -0.0440349, 7.97766, -6.30433, -0.152588, -0.0915527, -0.0152588, 0, 0
138610953, 0.0418359, 0.0154834, 0.0241992, 0.056499, -0.0562668, 7.95075, -6.31901, -0.183105, 0, 0.0457764, 0, 0
138610963, 0.0426563, 0.0154834, 0.0251221, 0.0573193, -0.0611596, 7.95564, -6.31656, -0.0457764, 0, -0.0152588, 0, 0
138610973, 0.0410156, 0.0158936, 0.0213281, 0.0573193, -0.0709451, 7.99234, -6.31901, -0.0457764, 0.0305176, 0.0305176, 0, 0
138610983, 0.0414258, 0.0163037, 0.0241992, 0.056499, -0.0513741, 8.01925, -6.34103, -0.0152588, 0.0305176, -0.0152588, 0, 0
138610993, 0.0414258, 0.0158936, 0.0241992, 0.0573193, -0.0464813, 7.99723, -6.35081, -0.106812, 0.0305176, -0.0152588, 0, 0
138611003, 0.0414258, 0.0158936, 0.0221484, 0.0573193, -0.0489277, 8.01191, -6.34837, -0.167847, 0.0457764, 0.0305176, 0, 0
138611013, 0.0448096, 0.0163037, 0.0247119, 0.05896, -0.0366958, 8.00457, -6.31901, -0.228882, -0.0610352, -0.0152588, 0, 0
138611033, 0.0442969, 0.0154834, 0.0225586, 0.0556787, -0.0440349, 8.02169, -6.33369, -0.0610352, 0.0152588, -0.0305176, 0, 0
138611043, 0.0430664, 0.0154834, 0.0229687, 0.0556787, -0.0489277, 8.03882, -6.33124, -0.0610352, 0.0457764, 0.0305176, 0, 0
138611053, 0.0430664, 0.0154834, 0.0229687, 0.0585498, -0.0415885, 8.04126, -6.30678, -0.0915527, 0.0457764, 0.0457764, 0, 0
138611063, 0.0410156, 0.0137402, 0.0255322, 0.0577295, -0.0342494, 8.04126, -6.31167, -0.0762939, -0.0457764, -0.0762939, 0, 0
138611073, 0.0422461, 0.0175342, 0.0241992, 0.0569092, -0.0513741, 8.02169, -6.28721, -0.152588, 0, 0, 0, 0
138611083, 0.0422461, 0.0137402, 0.0233789, 0.0569092, -0.0220175, 8.01925, -6.30433, -0.137329, 0, -0.106812, 0, 0
138611093, 0.0434766, 0.0167139, 0.0217383, 0.0577295, -0.0171247, 8.00457, -6.30678, -0.0762939, -0.0305176, -0.0152588, 0, 0
138611103, 0.0434766, 0.0167139, 0.0217383, 0.0548584, -0.0122319, 7.985, -6.34347, -0.0610352, -0.0762939, -0.0610352, 0, 0
138611123, 0.0384521, 0.0154834, 0.0251221, 0.0556787, -0.0440349, 7.99968, -6.32635, -0.0457764, 0, 0.0152588, 0, 0
138611133, 0.0426563, 0.0154834, 0.0233789, 0.0556787, -0.0391421, 8.0168, -6.31901, -0.0610352, 0, 0.0305176, 0, 0
138611143, 0.0406055, 0.0179443, 0.0251221, 0.0569092, -0.063606, 8.01925, -6.30433, -0.0610352, -0.0610352, 0.0152588, 0, 0
138611153, 0.0406055, 0.0154834, 0.0251221, 0.0577295, -0.0709451, 8.01925, -6.30678, -0.0610352, 0, 0, 0, 0
138611163, 0.0430664, 0.0154834, 0.0237891, 0.05896, -0.0660524, 8.00702, -6.33124, -0.0915527, 0, -0.0762939, 0, 0
138611173, 0.0422461, 0.0167139, 0.0241992, 0.0552686, -0.0684988, 7.9801, -6.35815, -0.12207, -0.106812, 0.0305176, 0, 0
138611183, 0.0430664, 0.0175342, 0.0251221, 0.0552686, -0.0660524, 7.98989, -6.33858, -0.12207, -0.0305176, -0.0457764, 0, 0
138611203, 0.0418359, 0.017124, 0.0225586, 0.0560889, -0.0660524, 8.00457, -6.30923, -0.0915527, -0.0305176, -0.0610352, 0, 0
138611213, 0.0418359, 0.017124, 0.0241992, 0.056499, -0.0856234, 8.0168, -6.29455, -0.106812, -0.0457764, -0.0610352, 0, 0
138611223, 0.0418359, 0.0163037, 0.0217383, 0.056499, -0.0709451, 7.99234, -6.31656, -0.0305176, 0.0762939, -0.0152588, 0, 0
138611233, 0.0430664, 0.0163037, 0.0241992, 0.056499, -0.0758379, 7.9801, -6.34592, -0.152588, 0.0762939, -0.0305176, 0, 0
138611243, 0.0422461, 0.017124, 0.0237891, 0.0581396, -0.0684988, 7.98255, -6.3288, -0.0457764, 0.0762939, -0.0457764, 0, 0
138611253, 0.0426563, 0.0125098, 0.0263525, 0.0569092, -0.0464813, 8.00212, -6.33369, 0.0152588, 0.0610352, -0.0152588, 0, 0
138611263, 0.0426563, 0.0125098, 0.0263525, 0.0581396, -0.0587132, 8.02169, -6.32635, -0.0610352, -0.0152588, -0.0610352, 0, 0
138611273, 0.0418359, 0.017124, 0.0237891, 0.0577295, -0.0464813, 8.02414, -6.31656, -0.106812, 0.0152588, -0.0610352, 0, 0
138611293, 0.0410156, 0.0133301, 0.0237891, 0.0569092, -0.0269102, 7.985, -6.34103, -0.12207, 0.0457764, 0.0610352, 0, 0
138611303, 0.0410156, 0.0120996, 0.0229687, 0.0573193, -0.0513741, 7.99234, -6.34592, -0.137329, -0.0457764, 0.0457764, 0, 0
138611313, 0.0410156, 0.0120996, 0.0229687, 0.0581396, -0.0342494, 7.98255, -6.3288, -0.0915527, -0.0915527, -0.0457764, 0, 0
138611323, 0.0434766, 0.017124, 0.0217383, 0.0569092, -0.0684988, 8.00212, -6.3239, -0.0152588, 0.0457764, 0.0305176, 0, 0
138611333, 0.0422461, 0.0179443, 0.0241992, 0.0581396, -0.0611596, 8.00212, -6.33613, -0.0610352, -0.0457764, 0.0152588, 0, 0
138611343, 0.0422461, 0.0158936, 0.0241992, 0.0581396, -0.0587132, 8.00212, -6.32635, -0.0610352, -0.0457764, 0, 0, 0
138611353, 0.0397852, 0.0150732, 0.0241992, 0.0611133, -0.0538205, 7.99968, -6.35081, -0.0915527, 0, 0, 0, 0
138611373, 0.0448096, 0.0150732, 0.0259424, 0.0577295, -0.0391421, 8.0168, -6.31167, -0.0152588, -0.0915527, 0.0457764, 0, 0
138611383, 0.0406055, 0.0154834, 0.0233789, 0.0577295, -0.0366958, 8.02169, -6.31656, -0.0457764, 0.0152588, 0.0152588, 0, 0
138611393, 0.0422461, 0.0154834, 0.0221484, 0.0577295, -0.0440349, 8.02659, -6.29455, -0.0915527, 0.0152588, -0.0915527, 0, 0
138611403, 0.0422461, 0.0163037, 0.0251221, 0.0560889, -0.0391421, 8.02659, -6.30678, -0.0915527, 0, -0.0305176, 0, 0
138611413, 0.0418359, 0.0167139, 0.0251221, 0.0573193, -0.0293566, 7.99723, -6.31412, -0.198364, 0.0610352, -0.0152588, 0, 0
138611423, 0.0418359, 0.0167139, 0.0233789, 0.056499, -0.0489277, 7.99723, -6.33613, -0.213623, 0, -0.0762939, 0, 0
138611433, 0.0426563, 0.0163037, 0.0229687, 0.0569092, -0.063606, 8.00212, -6.33858, -0.213623, 0.183105, -0.0915527, 0, 0
138611443, 0.0426563, 0.0145605, 0.0255322, 0.0569092, -0.0562668, 7.98989, -6.33369, -0.152588, 0.0305176, -0.0152588, 0, 0
138611463, 0.0442969, 0.0145605, 0.0233789, 0.0577295, -0.0684988, 7.99968, -6.34837, -0.152588, -0.0305176, -0.0152588, 0, 0
138611473, 0.0442969, 0.0145605, 0.0233789, 0.056499, -0.0807307, 8.00457, -6.36794, -0.167847, -0.0762939, -0.0457764, 0, 0
138611483, 0.0418359, 0.0154834, 0.0251221, 0.0577295, -0.0782843, 7.96543, -6.36305, -0.198364, -0.0457764, 0.0152588, 0, 0
138611493, 0.0438867, 0.0163037, 0.0241992, 0.0577295, -0.0782843, 7.95809, -6.32635, -0.0457764, -0.106812, 0.0610352, 0, 0
138611503, 0.0434766, 0.0133301, 0.0225586, 0.0577295, -0.0660524, 7.99723, -6.30678, -0.0610352, -0.137329, -0.0152588, 0, 0
138611513, 0.0430664, 0.0112793, 0.0233789, 0.0611133, -0.0660524, 8.02169, -6.30433, 0.0610352, -0.137329, 0.0152588, 0, 0
138611523, 0.0430664, 0.0112793, 0.0233789, 0.0598828, -0.0538205, 8.03148, -6.29944, -0.0152588, -0.0457764, 0.0305176, 0, 0
138611533, 0.0438867, 0.0150732, 0.0247119, 0.0577295, -0.0513741, 8.03148, -6.29699, -0.0457764, -0.0457764, 0.0610352, 0, 0
138611553, 0.0434766, 0.0167139, 0.0237891, 0.0569092, -0.0366958, 7.99234, -6.30189, -0.12207, -0.0610352, 0, 0, 0
138611563, 0.0388623, 0.0133301, 0.0251221, 0.0573193, -0.0513741, 8.00212, -6.30678, -0.0610352, 0.0152588, 0.0305176, 0, 0
138611573, 0.0388623, 0.017124, 0.0251221, 0.0556787, -0.0562668, 7.99234, -6.30433, -0.106812, 0.106812, -0.0610352, 0, 0
138611583, 0.0414258, 0.017124, 0.0229687, 0.0594727, -0.0366958, 7.9801, -6.34347, -0.0305176, 0.0915527, -0.0305176, 0, 0
138611593, 0.0438867, 0.0150732, 0.0217383, 0.0573193, -0.0489277, 7.99234, -6.34347, -0.106812, 0.0915527, -0.0305176, 0, 0
138611603, 0.0406055, 0.0133301, 0.0217383, 0.0573193, -0.0464813, 7.97766, -6.38506, -0.137329, 0.0915527, 0.0152588, 0, 0
138611613, 0.0422461, 0.0145605, 0.0251221, 0.0573193, -0.0489277, 7.97032, -6.37283, -0.152588, 0.0762939, -0.0610352, 0, 0
138611633, 0.0418359, 0.0150732, 0.0251221, 0.0611133, -0.0684988, 7.99234, -6.35326, 0.0152588, 0.0305176, 0, 0, 0
138611643, 0.0406055, 0.0163037, 0.0247119, 0.0569092, -0.0782843, 8.01435, -6.35081, -0.0305176, -0.0762939, -0.0152588, 0, 0
138611653, 0.0442969, 0.0137402, 0.0229687, 0.0569092, -0.0660524, 8.0535, -6.32146, 0.0457764, 0.0152588, 0.0152588, 0, 0
138611663, 0.0426563, 0.017124, 0.0267627, 0.0581396, -0.0538205, 8.03882, -6.31901, -0.106812, -0.12207, 0.0457764, 0, 0
138611673, 0.0414258, 0.0145605, 0.0267627, 0.056499, -0.063606, 8.04371, -6.31412, -0.167847, -0.0457764, 0.0457764, 0, 0
138611683, 0.0414258, 0.0145605, 0.0217383, 0.0573193, -0.031803, 8.03148, -6.28721, -0.167847, -0.0457764, -0.0457764, 0, 0
138611693, 0.0372217, 0.0145605, 0.0237891, 0.056499, -0.0489277, 8.01435, -6.29455, 0, -0.0457764, 0, 0, 0
138611703, 0.0430664, 0.0158936, 0.0241992, 0.05896, -0.0391421, 8.03637, -6.31412, -0.0610352, -0.0762939, 0.0152588, 0, 0
138611723, 0.0422461, 0.0154834, 0.0247119, 0.056499, -0.0342494, 8.03882, -6.29944, 0, 0, -0.0610352, 0, 0
138611733, 0.0422461, 0.0154834, 0.0247119, 0.0585498, -0.0440349, 8.0535, -6.31656, -0.0762939, -0.0152588, -0.0152588, 0, 0
138611743, 0.0418359, 0.0150732, 0.0259424, 0.0556787, -0.0489277, 8.02169, -6.3288, -0.0457764, -0.0457764, -0.0152588, 0, 0
138611753, 0.0418359, 0.0154834, 0.0225586, 0.0581396, -0.031803, 7.99723, -6.3239, -0.0915527, -0.106812, -0.0457764, 0, 0
138611763, 0.0438867, 0.0145605, 0.0229687, 0.0581396, -0.0611596, 7.97521, -6.33613, -0.0915527, -0.0152588, 0, 0, 0
138611773, 0.0426563, 0.0150732, 0.0241992, 0.0594727, -0.0538205, 7.96787, -6.30923, -0.0457764, -0.0152588, -0.0305176, 0, 0
138611783, 0.0426563, 0.017124, 0.0241992, 0.0573193, -0.0489277, 7.95809, -6.32635, -0.12207, 0, 0, 0, 0
138611803, 0.0397852, 0.0150732, 0.0225586, 0.056499, -0.0733915, 7.97521, -6.30189, -0.0915527, -0.0305176, 0, 0, 0
138611813, 0.0414258, 0.0158936, 0.0241992, 0.056499, -0.0709451, 7.98255, -6.31167, -0.152588, 0.0610352, 0, 0, 0
138611823, 0.0430664, 0.0150732, 0.0237891, 0.0560889, -0.0684988, 7.97277, -6.29944, -0.152588, 0.0305176, -0.0152588, 0, 0
138611833, 0.0410156, 0.0137402, 0.0237891, 0.0585498, -0.0782843, 7.98255, -6.29455, -0.106812, 0, -0.0762939, 0, 0
138611843, 0.0410156, 0.0137402, 0.0255322, 0.0577295, -0.0831771, 8.00457, -6.30433, -0.0152588, 0, 0.0610352, 0, 0
138611853, 0.0448096, 0.0167139, 0.0247119, 0.0581396, -0.0905162, 7.97766, -6.2921, -0.0457764, 0.0457764, -0.0305176, 0, 0
138611863, 0.0438867, 0.0133301, 0.0237891, 0.0581396, -0.0856234, 7.99478, -6.32146, -0.0305176, 0.0610352, -0.0152588, 0, 0
138611873, 0.0448096, 0.0150732, 0.0233789, 0.0581396, -0.0782843, 7.99478, -6.33613, -0.106812, 0.137329, 0, 0, 0
138611893, 0.0414258, 0.0145605, 0.0233789, 0.056499, -0.0660524, 7.99723, -6.34837, -0.0152588, 0.106812, -0.0457764, 0, 0
138611903, 0.0430664, 0.0141504, 0.0237891, 0.0585498, -0.0611596, 8.0168, -6.35571, -0.106812, 0.0457764, 0, 0, 0
138611913, 0.0430664, 0.0154834, 0.0229687, 0.0585498, -0.0538205, 8.03637, -6.33613, -0.0610352, 0.0915527, 0.0305176, 0, 0
138611923, 0.0434766, 0.0163037, 0.0233789, 0.0569092, -0.0415885, 8.05105, -6.33858, -0.106812, 0, 0, 0, 0
138611933, 0.0414258, 0.0158936, 0.0237891, 0.0585498, -0.031803, 8.03882, -6.34347, -0.183105, -0.0762939, 0.0152588, 0, 0
138611943, 0.0414258, 0.0158936, 0.0237891, 0.0573193, -0.0195711, 8.02903, -6.33124, -0.183105, 0.0305176, 0.0305176, 0, 0
138611953, 0.0410156, 0.0158936, 0.0251221, 0.0560889, -0.0146783, 8.01191, -6.32635, -0.0762939, 0.0305176, 0.0457764, 0, 0
138611973, 0.0410156, 0.0150732, 0.0237891, 0.0577295, -0.0244638, 8.00212, -6.35081, -0.0915527, 0.0762939, -0.0152588, 0, 0
138611983, 0.0430664, 0.0158936, 0.0229687, 0.0573193, -0.0195711, 8.00946, -6.3606, -0.0762939, -0.0610352, 0, 0, 0
138611993, 0.0410156, 0.0158936, 0.0229687, 0.0581396, -0.0220175, 7.99723, -6.37038, -0.0457764, 0, -0.0152588, 0, 0
138612003, 0.0410156, 0.0150732, 0.0233789, 0.0556787, -0.0269102, 7.99234, -6.36305, 0, -0.0762939, -0.0610352, 0, 0
138612013, 0.0414258, 0.0163037, 0.0229687, 0.0585498, -0.0464813, 8.00212, -6.35815, 0.0305176, 0.0152588, -0.0305176, 0, 0
138612023, 0.0410156, 0.0167139, 0.0251221, 0.0585498, -0.0489277, 7.99968, -6.35326, -0.0152588, -0.167847, -0.0457764, 0, 0
138612033, 0.0448096, 0.0163037, 0.0247119, 0.0577295, -0.0440349, 7.99968, -6.34347, -0.152588, -0.0762939, -0.0915527, 0, 0
138612043, 0.0422461, 0.0150732, 0.0247119, 0.0581396, -0.0464813, 7.98255, -6.33369, -0.228882, -0.0152588, -0.0457764, 0, 0
138612063, 0.0418359, 0.0163037, 0.0255322, 0.060293, -0.0660524, 7.97277, -6.28231, -0.137329, -0.0305176, -0.0305176, 0, 0
138612073, 0.0434766, 0.0150732, 0.0233789, 0.060293, -0.0782843, 7.99968, -6.27008, -0.0610352, -0.0305176, -0.0305176, 0, 0
138612083, 0.0418359, 0.0141504, 0.0233789, 0.056499, -0.0831771, 8.00946, -6.25296, -0.0762939, 0, -0.0305176, 0, 0
138612093, 0.0418359, 0.0158936, 0.0233789, 0.0577295, -0.0978554, 7.99234, -6.27987, -0.12207, 0.0610352, -0.0610352, 0, 0
138612103, 0.0418359, 0.0158936, 0.0229687, 0.0573193, -0.0905162, 7.99723, -6.29699, -0.106812, 0.0762939, -0.0152588, 0, 0
138612113, 0.0414258, 0.0154834, 0.0247119, 0.0581396, -0.0978554, 7.985, -6.30678, -0.0915527, 0.0305176, -0.0610352, 0, 0
138612123, 0.0418359, 0.0129199, 0.0229687, 0.0581396, -0.117426, 7.96053, -6.32146, -0.0457764, 0.0610352, 0.0457764, 0, 0
138612143, 0.0414258, 0.0154834, 0.0255322, 0.056499, -0.102748, 7.96543, -6.37528, -0.0152588, -0.0152588, 0.0457764, 0, 0
138612153, 0.0414258, 0.0154834, 0.0255322, 0.0577295, -0.102748, 7.95564, -6.36549, -0.0610352, -0.0305176, 0.137329, 0, 0
138612163, 0.0434766, 0.0154834, 0.0241992, 0.0585498, -0.0978554, 7.98255, -6.35571, -0.106812, -0.0305176, 0.0610352, 0, 0
138612173, 0.0438867, 0.0163037, 0.0205078, 0.0560889, -0.0758379, 8.01925, -6.34592, -0.0915527, -0.0610352, 0.152588, 0, 0
138612183, 0.0430664, 0.0158936, 0.0251221, 0.0560889, -0.0538205, 8.02903, -6.30433, -0.0915527, 0, 0.12207, 0, 0
138612193, 0.0426563, 0.0167139, 0.0229687, 0.0585498, -0.0366958, 8.04126, -6.30678, -0.167847, -0.0152588, 0.137329, 0, 0
138612203, 0.0448096, 0.0167139, 0.0229687, 0.0548584, -0.0244638, 8.07307, -6.2921, -0.183105, 0, 0.0305176, 0, 0
138612213, 0.0448096, 0.0167139, 0.0241992, 0.0573193, -0.0146783, 8.04126, -6.27253, -0.137329, 0, -0.0457764, 0, 0
138612233, 0.0434766, 0.017124, 0.0237891, 0.0573193, 0.00244638, 8.00946, -6.30923, -0.0610352, 0.0457764, 0.0152588, 0, 0
138612243, 0.0418359, 0.0158936, 0.0251221, 0.0581396, -0.00978554, 7.99723, -6.34837, -0.0610352, 0.0152588, -0.0305176, 0, 0
138612253, 0.0430664, 0.0158936, 0.0251221, 0.0585498, -0.0195711, 8.01191, -6.34592, -0.0610352, 0, 0, 0, 0
138612263, 0.0430664, 0.0158936, 0.0233789, 0.0577295, -0.0146783, 7.99968, -6.36305, -0.106812, -0.0305176, -0.0610352, 0, 0
138612273, 0.0418359, 0.0167139, 0.0233789, 0.0560889, -0.0293566, 8.0168, -6.34837, -0.183105, -0.0457764, -0.0305176, 0, 0
138612283, 0.0434766, 0.0167139, 0.0225586, 0.0560889, -0.0293566, 7.99234, -6.35326, -0.0610352, 0.0305176, -0.0305176, 0, 0
138612293, 0.0422461, 0.0175342, 0.0255322, 0.0569092, -0.0269102, 7.98989, -6.34592, -0.0762939, -0.0457764, 0.0152588, 0, 0
138612313, 0.0448096, 0.0154834, 0.0237891, 0.0585498, -0.0342494, 8.0168, -6.31167, -0.137329, -0.0915527, 0, 0, 0
138612323, 0.0430664, 0.0150732, 0.0247119, 0.0581396, -0.0464813, 7.99478, -6.31656, -0.0610352, 0, -0.0305176, 0, 0
138612333, 0.0418359, 0.0154834, 0.0251221, 0.0581396, -0.0807307, 7.99478, -6.31167, -0.137329, -0.0305176, 0.0152588, 0, 0
138612343, 0.0438867, 0.0163037, 0.0217383, 0.0573193, -0.0880698, 8.00946, -6.3239, -0.106812, 0.0152588, -0.0152588, 0, 0
138612353, 0.0430664, 0.0154834, 0.0255322, 0.0581396, -0.0831771, 8.0168, -6.31901, -0.137329, 0.0152588, -0.0457764, 0, 0
138612363, 0.0430664, 0.0154834, 0.0255322, 0.0556787, -0.0856234, 8.00212, -6.31901, -0.0305176, -0.0305176, -0.0152588, 0, 0
138612373, 0.0434766, 0.0158936, 0.0247119, 0.05896, -0.100302, 8.02414, -6.27987, -0.0915527, 0.0152588, 0.0152588, 0, 0
138612383, 0.0422461, 0.0145605, 0.0233789, 0.0611133, -0.0880698, 8.01191, -6.2921, -0.0915527, -0.0152588, 0, 0, 0
138612403, 0.0442969, 0.0158936, 0.0259424, 0.0573193, -0.0856234, 8.02659, -6.28476, -0.0152588, -0.0457764, -0.0457764, 0, 0
138612413, 0.0422461, 0.0158936, 0.0259424, 0.0607031, -0.0880698, 8.0168, -6.28476, -0.0762939, 0.0152588, 0, 0, 0
138612423, 0.0422461, 0.0163037, 0.0255322, 0.0569092, -0.0709451, 8.00702, -6.30923, -0.152588, 0.12207, 0.0152588, 0, 0
138612433, 0.0434766, 0.0163037, 0.0247119, 0.0577295, -0.0660524, 8.0168, -6.33613, -0.183105, 0.0152588, -0.0152588, 0, 0
138612443, 0.0422461, 0.0154834, 0.0241992, 0.0577295, -0.0660524, 7.98989, -6.35081, -0.213623, 0, -0.0152588, 0, 0
138612453, 0.0434766, 0.0179443, 0.0237891, 0.0585498, -0.0513741, 7.97032, -6.36794, -0.198364, 0.0305176, 0.0610352, 0, 0
138612463, 0.0434766, 0.0154834, 0.0237891, 0.056499, -0.0611596, 7.9483, -6.37283, -0.137329, -0.0305176, 0.0915527, 0, 0
138612483, 0.0410156, 0.0158936, 0.0247119, 0.056499, -0.0489277, 7.97766, -6.34103, 0.0305176, -0.0610352, 0.0610352, 0, 0
138612493, 0.0430664, 0.0175342, 0.0247119, 0.056499, -0.0391421, 7.99723, -6.3288, 0.0305176, 0.0152588, -0.0152588, 0, 0
138612503, 0.0426563, 0.0141504, 0.0233789, 0.0573193, -0.0513741, 8.02414, -6.29944, -0.0457764, -0.0152588, -0.0152588, 0, 0
138612513, 0.0442969, 0.0145605, 0.0233789, 0.056499, -0.0366958, 8.03882, -6.29699, -0.12207, -0.0762939, 0, 0, 0
138612523, 0.0442969, 0.0145605, 0.0255322, 0.0585498, -0.0195711, 8.03637, -6.30923, -0.0915527, 0.0305176, -0.0457764, 0, 0
138612533, 0.0456299, 0.0158936, 0.0259424, 0.056499, -0.0293566, 8.02659, -6.30923, -0.0762939, 0.0152588, -0.0305176, 0, 0
138612543, 0.0422461, 0.0141504, 0.0229687, 0.056499, -0.0146783, 7.99968, -6.32635, -0.0457764, 0.0305176, -0.0457764, 0, 0
138612553, 0.0430664, 0.0158936, 0.0237891, 0.0569092, -0.00244638, 7.99234, -6.3239, -0.12207, 0.0152588, -0.0610352, 0, 0
138612573, 0.0414258, 0.0183545, 0.0251221, 0.0585498, -0.0415885, 8.01435, -6.3239, -0.12207, 0.0152588, -0.0457764, 0, 0
138612583, 0.0442969, 0.0163037, 0.0221484, 0.056499, -0.0366958, 7.99723, -6.28721, -0.106812, 0.0152588, -0.0762939, 0, 0
138612593, 0.0418359, 0.0150732, 0.0229687, 0.0569092, -0.0880698, 8.01191, -6.27008, -0.0305176, 0.106812, -0.0152588, 0, 0
138612603, 0.0434766, 0.0163037, 0.0237891, 0.0569092, -0.0684988, 8.03882, -6.2603, -0.106812, 0, -0.0152588, 0, 0
138612613, 0.0438867, 0.0129199, 0.0237891, 0.056499, -0.0978554, 8.05594, -6.26519, 0, 0, -0.0305176, 0, 0
138612623, 0.0422461, 0.0129199, 0.0237891, 0.056499, -0.0905162, 8.03882, -6.2921, -0.106812, 0.12207, -0.0305176, 0, 0
138612633, 0.0422461, 0.0191748, 0.0229687, 0.056499, -0.0929626, 8.01925, -6.34837, -0.183105, 0.0152588, -0.0762939, 0, 0
138612653, 0.0422461, 0.0163037, 0.0255322, 0.0573193, -0.0709451, 7.93852, -6.38262, 0.0152588, 0, 0, 0, 0
138612663, 0.0422461, 0.0167139, 0.0237891, 0.0607031, -0.0929626, 7.94096, -6.37283, 0.0152588, -0.0457764, 0.12207, 0, 0
138612673, 0.0414258, 0.0167139, 0.0237891, 0.0577295, -0.0880698, 7.95564, -6.36794, 0.0762939, -0.106812, 0.0915527, 0, 0
138612683, 0.0414258, 0.0141504, 0.0237891, 0.0615234, -0.0709451, 7.99234, -6.35081, 0.0610352, -0.0457764, 0.0610352, 0, 0
138612693, 0.0414258, 0.0167139, 0.0229687, 0.0585498, -0.0440349, 8.02659, -6.31901, -0.12207, -0.0305176, 0.0762939, 0, 0
138612703, 0.0418359, 0.0167139, 0.0233789, 0.0585498, -0.0293566, 8.0486, -6.31901, -0.152588, 0, 0.0457764, 0, 0
138612713, 0.0426563, 0.019585, 0.0259424, 0.0594727, -0.0195711, 8.04126, -6.30433, -0.152588, -0.0457764, 0.0457764, 0, 0
138612723, 0.0456299, 0.0158936, 0.0259424, 0.0552686, 0.00733915, 8.03148, -6.3288, -0.0915527, 0.0305176, -0.0152588, 0, 0
138612743, 0.0434766, 0.0154834, 0.0237891, 0.0560889, -0.0146783, 7.9801, -6.39974, -0.0915527, 0.106812, -0.0762939, 0, 0
138612753, 0.0438867, 0.0145605, 0.0229687, 0.0560889, -0.0195711, 7.95319, -6.4242, -0.12207, 0.0457764, -0.0457764, 0, 0
138612763, 0.0438867, 0.0145605, 0.0247119, 0.0569092, -0.0391421, 7.9483, -6.40219, -0.106812, -0.0915527, -0.0457764, 0, 0
138612773, 0.0430664, 0.0167139, 0.0225586, 0.0569092, -0.0489277, 7.95564, -6.36549, -0.198364, -0.0457764, 0.0152588, 0, 0
138612783, 0.0422461, 0.0167139, 0.0225586, 0.0581396, -0.0587132, 7.99723, -6.33613, -0.183105, -0.0305176, 0, 0, 0
138612793, 0.0422461, 0.0154834, 0.0225586, 0.0585498, -0.063606, 8.0168, -6.3288, -0.0762939, -0.0762939, -0.0152588, 0, 0
138612803, 0.0452197, 0.0167139, 0.0233789, 0.0569092, -0.0464813, 8.03637, -6.30433, -0.12207, -0.167847, -0.0457764, 0, 0
138612823, 0.0438867, 0.0163037, 0.0221484, 0.0607031, -0.063606, 8.00457, -6.28476, -0.183105, -0.0305176, 0, 0, 0
138612833, 0.0430664, 0.0163037, 0.0221484, 0.0569092, -0.0733915, 8.01435, -6.27742, -0.152588, -0.106812, -0.0152588, 0, 0
138612843, 0.0430664, 0.0179443, 0.0251221, 0.0573193, -0.0856234, 8.00212, -6.26519, -0.106812, 0.0152588, -0.0610352, 0, 0
138612853, 0.0422461, 0.0158936, 0.0229687, 0.0581396, -0.0758379, 7.985, -6.28721, -0.0610352, 0.0305176, 0.0305176, 0, 0
138612863, 0.0414258, 0.0150732, 0.0237891, 0.0581396, -0.105195, 7.97277, -6.28721, 0.0457764, -0.0305176, 0, 0, 0
138612873, 0.0414258, 0.0137402, 0.0247119, 0.0556787, -0.110087, 8.00457, -6.28231, 0.0762939, 0.0152588, 0.0305176, 0, 0
138612883, 0.0430664, 0.0137402, 0.0247119, 0.0569092, -0.0880698, 8.00702, -6.28231, -0.0152588, 0.0610352, 0.0152588, 0, 0
138612893, 0.0430664, 0.017124, 0.0237891, 0.0573193, -0.095409, 8.02903, -6.30433, -0.0305176, 0.0610352, 0.0305176, 0, 0
138612913, 0.0426563, 0.0179443, 0.0247119, 0.0569092, -0.0587132, 7.98989, -6.30678, -0.0610352, -0.0152588, 0.0152588, 0, 0
138612923, 0.0442969, 0.0187646, 0.0233789, 0.0573193, -0.0489277, 7.98989, -6.30678, -0.0915527, -0.0305176, 0.0610352, 0, 0
138612933, 0.0418359, 0.0137402, 0.0233789, 0.0569092, -0.0464813, 7.97766, -6.3239, 0.0152588, -0.0305176, -0.0152588, 0, 0
138612943, 0.0418359, 0.0137402, 0.0233789, 0.0594727, -0.0489277, 7.91895, -6.29944, 0.12207, -0.0762939, -0.0610352, 0, 0
138612953, 0.0434766, 0.017124, 0.0233789, 0.0585498, -0.0269102, 8.07062, -6.2921, 0.640869, -0.0762939, 0, 0, 0
138612963, 0.0414258, 0.017124, 0.0247119, 0.0585498, -0.0293566, 8.00212, -6.32635, 0.335693, 0.0152588, 0.228882, 0, 0
138612973, 0.0397852, 0.0137402, 0.0225586, 0.05896, -0.0366958, 8.20273, -6.4242, -0.427246, 0.0610352, 0, 0, 0
138612983, 0.0448096, 0.0158936, 0.0205078, 0.05896, -0.0293566, 8.09264, -6.37528, -0.839233, 0.0305176, -0.0915527, 0, 0
138613003, 0.0422461, 0.0141504, 0.0217383, 0.0569092, -0.0146783, 7.86023, -6.29455, 0.0915527, -0.0610352, -0.0305176, 0, 0
138613013, 0.0418359, 0.0154834, 0.0225586, 0.0581396, -0.0269102, 7.97766, -6.38017, 0.259399, -0.0152588, 0.0762939, 0, 0
138613023, 0.0397852, 0.0167139, 0.0205078, 0.0581396, -0.0366958, 8.06818, -6.41442, 0.106812, 0.0152588, 0.0457764, 0, 0
138613033, 0.0442969, 0.017124, 0.0247119, 0.0560889, -0.0220175, 8.07796, -6.37283, -0.198364, 0.0152588, -0.137329, 0, 0
138613043, 0.0438867, 0.017124, 0.0247119, 0.0573193, -0.00489277, 7.98744, -6.36794, -0.335693, 0.0152588, -0.0305176, 0, 0
138613053, 0.0438867, 0.0167139, 0.0237891, 0.0569092, -0.0489277, 7.96543, -6.33124, -0.335693, -0.0762939, 0.0152588, 0, 0
138613063, 0.0418359, 0.0154834, 0.0200977, 0.0581396, -0.0684988, 8.01925, -6.27253, -0.0457764, 0.0457764, -0.0915527, 0, 0
138613083, 0.0414258, 0.0145605, 0.0217383, 0.056499, -0.0709451, 8.01925, -6.34592, 0.137329, 0.0305176, -0.0305176, 0, 0
138613093, 0.0422461, 0.0145605, 0.0217383, 0.0569092, -0.0831771, 8.02169, -6.38262, -0.213623, 0.0610352, -0.0152588, 0, 0
138613103, 0.0422461, 0.0175342, 0.0251221, 0.0569092, -0.0782843, 7.96543, -6.35571, -0.549316, 0.0610352, -0.0305176, 0, 0
138613113, 0.0422461, 0.0158936, 0.0247119, 0.0569092, -0.0880698, 7.90427, -6.30923, -0.38147, -0.0152588, -0.106812, 0, 0
138613123, 0.0418359, 0.0158936, 0.0247119, 0.0569092, -0.0905162, 7.8798, -6.27008, -0.12207, 0, -0.106812, 0, 0
138613133, 0.0414258, 0.017124, 0.0217383, 0.0573193, -0.0905162, 7.87491, -6.28721, 0.183105, 0.0305176, -0.0457764, 0, 0
138613143, 0.0422461, 0.0137402, 0.0217383, 0.0577295, -0.0587132, 7.93607, -6.32146, 0.244141, 0, -0.0305176, 0, 0
138613153, 0.0422461, 0.0137402, 0.0229687, 0.0577295, -0.0611596, 8.00457, -6.31412, 0.137329, -0.0457764, 0.0305176, 0, 0
138613173, 0.0452197, 0.0163037, 0.0221484, 0.0598828, -0.063606, 8.03637, -6.27008, -0.289917, -0.0457764, -0.0152588, 0, 0
138613183, 0.0426563, 0.0154834, 0.0217383, 0.0585498, -0.0513741, 7.98255, -6.2603, -0.198364, 0.0152588, -0.0305176, 0, 0
138613193, 0.0430664, 0.0175342, 0.0225586, 0.0573193, -0.0489277, 7.95319, -6.30433, 0.137329, 0.0305176, 0, 0, 0
138613203, 0.0426563, 0.0175342, 0.0225586, 0.060293, -0.0562668, 7.97277, -6.35326, 0.137329, 0.0915527, 0.0152588, 0, 0
138613213, 0.0426563, 0.0158936, 0.0251221, 0.0548584, -0.0513741, 8.01435, -6.37528, 0.0915527, -0.0915527, 0.0152588, 0, 0
138613223, 0.0410156, 0.0158936, 0.0241992, 0.056499, -0.0513741, 8.01191, -6.38262, -0.0305176, -0.12207, 0.0457764, 0, 0
138613233, 0.0414258, 0.0145605, 0.0247119, 0.056499, -0.0611596, 8.00946, -6.37528, -0.213623, 0, -0.0305176, 0, 0
138613253, 0.0434766, 0.017124, 0.0225586, 0.0581396, -0.0464813, 8.09753, -6.29455, -0.0152588, -0.0305176, 0, 0, 0
138613263, 0.0434766, 0.0163037, 0.0247119, 0.0585498, -0.0391421, 8.11221, -6.3239, -0.0152588, 0.0610352, -0.0305176, 0, 0
138613273, 0.0397852, 0.0145605, 0.0233789, 0.0560889, -0.0244638, 8.09509, -6.34347, -0.12207, 0.0610352, -0.0457764, 0, 0
138613283, 0.0430664, 0.0141504, 0.0237891, 0.0560889, -0.0366958, 8.08041, -6.32635, -0.335693, -0.0610352, -0.0305176, 0, 0
138613293, 0.0414258, 0.0163037, 0.0233789, 0.0569092, -0.0366958, 8.03393, -6.32635, -0.228882, -0.0152588, -0.0152588, 0, 0
138613303, 0.0410156, 0.0163037, 0.0233789, 0.0577295, -0.0587132, 7.96053, -6.33858, -0.106812, -0.0915527, -0.0610352, 0, 0
138613313, 0.0410156, 0.0141504, 0.0233789, 0.05896, -0.0464813, 7.93852, -6.33613, -0.0152588, 0.0915527, -0.0762939, 0, 0
138613323, 0.0438867, 0.0154834, 0.0233789, 0.0556787, -0.0782843, 7.94096, -6.37528, 0.0152588, -0.0305176, -0.0610352, 0, 0
138613343, 0.0422461, 0.0145605, 0.0217383, 0.056499, -0.0660524, 7.9483, -6.37772, -0.12207, 0.0152588, -0.0762939, 0, 0
138613353, 0.0414258, 0.0145605, 0.0217383, 0.0560889, -0.0782843, 7.97521, -6.32635, -0.198364, -0.0915527, 0.0610352, 0, 0
138613363, 0.0414258, 0.0150732, 0.0247119, 0.0573193, -0.0660524, 7.985, -6.2921, -0.183105, -0.0610352, 0.0305176, 0, 0
138613373, 0.0434766, 0.017124, 0.0251221, 0.0577295, -0.0684988, 7.96053, -6.29699, -0.0610352, 0, 0.0457764, 0, 0
138613383, 0.0426563, 0.0145605, 0.0237891, 0.0577295, -0.0660524, 7.97521, -6.30189, 0, -0.106812, 0.0305176, 0, 0
138613393, 0.0397852, 0.0175342, 0.0205078, 0.0560889, -0.0733915, 7.96543, -6.31167, -0.0610352, -0.0305176, 0.0152588, 0, 0
138613403, 0.0442969, 0.0179443, 0.0229687, 0.0594727, -0.0562668, 7.98255, -6.30923, -0.0762939, 0, 0.0610352, 0, 0
138613423, 0.0418359, 0.0163037, 0.0233789, 0.0585498, -0.063606, 7.96543, -6.28231, -0.244141, -0.106812, -0.0152588, 0, 0
138613433, 0.0418359, 0.0141504, 0.020918, 0.0573193, -0.063606, 7.9801, -6.28476, -0.0152588, -0.0610352, -0.0152588, 0, 0
138613443, 0.0438867, 0.0179443, 0.0251221, 0.0573193, -0.0538205, 8.0168, -6.27253, 0.0152588, -0.0305176, 0.0457764, 0, 0
138613453, 0.0422461, 0.0150732, 0.0221484, 0.0556787, -0.0538205, 8.05839, -6.28965, 0.0152588, 0.0915527, 0.0152588, 0, 0
138613463, 0.0418359, 0.0150732, 0.0221484, 0.0569092, -0.0513741, 8.08775, -6.29699, -0.0152588, -0.0152588, -0.0305176, 0, 0
138613473, 0.0418359, 0.0145605, 0.0247119, 0.0556787, -0.0122319, 8.08285, -6.31412, -0.244141, 0, -0.0457764, 0, 0
138613483, 0.0430664, 0.0145605, 0.0233789, 0.0560889, -0.00978554, 8.06328, -6.31412, -0.167847, 0.0457764, -0.0152588, 0, 0
138613493, 0.0422461, 0.0150732, 0.0247119, 0.0560889, -0.0146783, 8.00946, -6.32635, -0.228882, 0.0152588, -0.0305176, 0, 0
138613513, 0.0430664, 0.0129199, 0.0225586, 0.05896, -0.0415885, 8.04371, -6.31901, 0.0457764, 0.0762939, 0.0152588, 0, 0
138613523, 0.0430664, 0.0154834, 0.0241992, 0.0577295, -0.0562668, 8.04616, -6.3606, 0.0152588, 0.0457764, 0.0457764, 0, 0
138613533, 0.0434766, 0.0150732, 0.0241992, 0.0573193, -0.0660524, 8.0486, -6.35815, -0.0152588, 0.0305176, -0.0152588, 0, 0
138613543, 0.0418359, 0.0141504, 0.0217383, 0.0573193, -0.063606, 8.04126, -6.33613, -0.152588, -0.0457764, 0, 0, 0
138613553, 0.0422461, 0.0158936, 0.0241992, 0.056499, -0.0587132, 8.02659, -6.32146, -0.167847, -0.0610352, 0.0152588, 0, 0
138613563, 0.0434766, 0.0158936, 0.0241992, 0.0573193, -0.0684988, 7.99478, -6.30433, -0.137329, -0.0305176, 0.0152588, 0, 0
138613573, 0.0434766, 0.0158936, 0.0233789, 0.0585498, -0.0660524, 7.98255, -6.29944, 0, -0.106812, 0, 0, 0
138613593, 0.0434766, 0.0150732, 0.0251221, 0.0577295, -0.0464813, 7.95809, -6.3239, 0.0152588, -0.0610352, -0.0457764, 0, 0
138613603, 0.0430664, 0.0183545, 0.0237891, 0.0585498, -0.0415885, 7.96298, -6.3239, -0.106812, 0.0457764, -0.0305176, 0, 0
138613613, 0.0434766, 0.0158936, 0.0247119, 0.0573193, -0.0440349, 7.97277, -6.31901, -0.167847, 0, -0.0762939, 0, 0
138613623, 0.0434766, 0.0158936, 0.0247119, 0.0577295, -0.0171247, 7.96787, -6.32635, -0.12207, 0.0762939, -0.0305176, 0, 0
138613633, 0.0434766, 0.0141504, 0.0237891, 0.0581396, -0.0269102, 7.97032, -6.31412, -0.0457764, 0.0610352, -0.0305176, 0, 0
138613643, 0.0442969, 0.017124, 0.0241992, 0.056499, -0.0342494, 7.98989, -6.34347, -0.137329, 0.0152588, -0.0762939, 0, 0
138613653, 0.0434766, 0.0163037, 0.0229687, 0.056499, -0.0513741, 7.97521, -6.34592, -0.0762939, 0.0305176, -0.0305176, 0, 0
138613663, 0.0418359, 0.0137402, 0.0205078, 0.0573193, -0.0733915, 7.93852, -6.38017, -0.106812, 0.0152588, -0.0457764, 0, 0
138613683, 0.0468603, 0.0167139, 0.0233789, 0.0573193, -0.110087, 7.93362, -6.3606, -0.183105, -0.0457764, 0.0610352, 0, 0
138613693, 0.0418359, 0.0167139, 0.0233789, 0.056499, -0.0782843, 7.96787, -6.30433, -0.0457764, -0.0152588, -0.0152588, 0, 0
138613703, 0.0434766, 0.0150732, 0.0237891, 0.056499, -0.100302, 8.03882, -6.30189, -0.0610352, -0.0762939, 0.0457764, 0, 0
138613713, 0.0406055, 0.0154834, 0.0213281, 0.0585498, -0.0856234, 8.0853, -6.27008, -0.0152588, -0.0915527, -0.0610352, 0, 0
138613723, 0.0422461, 0.0154834, 0.0213281, 0.0577295, -0.0660524, 8.07796, -6.27742, -0.0610352, 0, 0.0457764, 0, 0
138613733, 0.0422461, 0.0145605, 0.0217383, 0.0569092, -0.0587132, 8.01191, -6.32146, -0.106812, 0.0610352, -0.0152588, 0, 0
138613743, 0.0418359, 0.0163037, 0.0221484, 0.056499, -0.0538205, 8.00212, -6.32146, -0.198364, -0.0152588, 0, 0, 0
138613763, 0.0456299, 0.0167139, 0.0229687, 0.0577295, -0.0562668, 8.08041, -6.27987, 0.0305176, 0.0762939, 0.0457764, 0, 0
138613773, 0.0448096, 0.0167139, 0.0229687, 0.0585498, -0.0758379, 8.07796, -6.30433, -0.0915527, 0.0762939, -0.0152588, 0, 0
138613783, 0.0438867, 0.0133301, 0.0241992, 0.0548584, -0.0733915, 7.99723, -6.36794, -0.0457764, -0.0152588, -0.0305176, 0, 0
138613793, 0.0438867, 0.0150732, 0.0229687, 0.0585498, -0.0587132, 7.93118, -6.41931, -0.183105, 0.0457764, -0.0305176, 0, 0
138613803, 0.0442969, 0.0125098, 0.0221484, 0.0585498, -0.0489277, 7.9483, -6.37283, -0.152588, -0.0305176, 0.0457764, 0, 0
138613813, 0.0426563, 0.0183545, 0.0241992, 0.0569092, -0.063606, 8.02659, -6.27742, -0.0152588, -0.0457764, 0.0762939, 0, 0
138613823, 0.0418359, 0.0158936, 0.0237891, 0.0569092, -0.0538205, 8.0853, -6.27742, -0.0305176, -0.0457764, 0.0762939, 0, 0
138613833, 0.0464502, 0.0158936, 0.0237891, 0.0569092, -0.0122319, 8.02659, -6.28231, -0.0610352, 0.0152588, 0.0152588, 0, 0
138613853, 0.0426563, 0.0158936, 0.0217383, 0.0585498, -0.0122319, 7.97032, -6.29455, -0.12207, 0.0457764, 0, 0, 0
138613863, 0.0410156, 0.0179443, 0.0225586, 0.0569092, -0.0171247, 7.96053, -6.27987, -0.137329, -0.0610352, 0.0305176, 0, 0
138613873, 0.0434766, 0.0175342, 0.0229687, 0.0581396, -0.0122319, 7.98255, -6.27008, -0.0762939, -0.0152588, -0.0152588, 0, 0
138613883, 0.0442969, 0.0175342, 0.0229687, 0.0585498, -0.0489277, 7.9801, -6.27253, 0.0305176, -0.0457764, -0.0457764, 0, 0
138613893, 0.0442969, 0.0167139, 0.0247119, 0.0560889, -0.0342494, 7.97766, -6.3239, 0.0305176, -0.0915527, 0.0457764, 0, 0
138613903, 0.0414258, 0.0175342, 0.0221484, 0.0581396, -0.0513741, 7.99968, -6.33858, 0.0152588, 0, -0.0305176, 0, 0
138613913, 0.0426563, 0.0154834, 0.0200977, 0.0581396, -0.0660524, 8.01191, -6.33858, 0.0305176, -0.0152588, 0.0915527, 0, 0
138613933, 0.0426563, 0.017124, 0.0205078, 0.0581396, -0.0489277, 8.01191, -6.31167, -0.0152588, 0, -0.0610352, 0, 0
138613943, 0.0426563, 0.0167139, 0.0217383, 0.056499, -0.0513741, 8.0486, -6.3288, 0.0610352, -0.106812, -0.0457764, 0, 0
138613953, 0.0414258, 0.0145605, 0.0237891, 0.0556787, -0.0660524, 8.06818, -6.3288, -0.0305176, 0.0457764, -0.0610352, 0, 0
138613963, 0.0406055, 0.0154834, 0.0241992, 0.0556787, -0.063606, 8.00212, -6.35326, -0.0915527, 0, -0.0610352, 0, 0
138613973, 0.0442969, 0.0141504, 0.0229687, 0.0560889, -0.0660524, 7.97521, -6.39485, -0.0762939, 0.0152588, 0, 0, 0
138613983, 0.0434766, 0.0141504, 0.0229687, 0.0560889, -0.0611596, 7.95564, -6.38996, -0.106812, -0.0457764, -0.0915527, 0, 0
138613993, 0.0414258, 0.0158936, 0.0213281, 0.0556787, -0.063606, 8.00212, -6.34103, -0.0762939, 0.0152588, -0.0305176, 0, 0
138614003, 0.0414258, 0.0141504, 0.0233789, 0.0581396, -0.0587132, 8.04616, -6.3239, 0.0152588, 0, 0.0152588, 0, 0
138614023, 0.0426563, 0.0163037, 0.0255322, 0.0573193, -0.0587132, 7.99234, -6.35326, -0.167847, -0.0152588, -0.0610352, 0, 0
138614033, 0.0430664, 0.0154834, 0.0217383, 0.0573193, -0.0807307, 7.95809, -6.35571, -0.228882, 0.0152588, -0.0305176, 0, 0
138614043, 0.0422461, 0.0154834, 0.0217383, 0.0573193, -0.0684988, 7.985, -6.34592, -0.274658, 0.0457764, -0.0152588, 0, 0
138614053, 0.0422461, 0.0158936, 0.019585, 0.0573193, -0.0880698, 7.9801, -6.3239, -0.228882, 0, -0.0610352, 0, 0
138614063, 0.0430664, 0.0154834, 0.0237891, 0.0573193, -0.0880698, 7.98744, -6.32146, -0.106812, -0.0457764, -0.0915527, 0, 0
138614073, 0.0434766, 0.0183545, 0.0241992, 0.0573193, -0.0758379, 7.99478, -6.32635, -0.152588, 0.0457764, -0.0152588, 0, 0
138614083, 0.0438867, 0.017124, 0.0221484, 0.0569092, -0.105195, 7.96298, -6.36305, -0.167847, 0.0152588, -0.0152588, 0, 0
138614103, 0.0426563, 0.0158936, 0.0233789, 0.0560889, -0.0782843, 7.91405, -6.36794, -0.198364, -0.0152588, 0.0610352, 0, 0
138614113, 0.0430664, 0.0167139, 0.0225586, 0.0577295, -0.0831771, 7.92628, -6.33613, -0.274658, -0.0305176, 0.0152588, 0, 0
138614123, 0.0426563, 0.0163037, 0.0259424, 0.0577295, -0.0733915, 7.985, -6.30678, -0.0610352, -0.0762939, 0.0915527, 0, 0
138614133, 0.0452197, 0.0150732, 0.0225586, 0.0569092, -0.0611596, 8.0168, -6.30189, 0.0915527, -0.0610352, 0.0457764, 0, 0
138614143, 0.0434766, 0.0150732, 0.0225586, 0.0573193, -0.0464813, 8.04371, -6.30189, -0.0305176, -0.0457764, -0.0152588, 0, 0
138614153, 0.0434766, 0.0163037, 0.0205078, 0.0577295, -0.0269102, 8.03148, -6.31656, -0.213623, -0.0152588, -0.0152588, 0, 0
138614163, 0.0430664, 0.0150732, 0.0233789, 0.0544482, -0.0269102, 7.98255, -6.30433, -0.274658, -0.0457764, 0, 0, 0
138614173, 0.0434766, 0.0158936, 0.0229687, 0.0544482, -0.00978554, 8.00212, -6.27987, -0.137329, -0.0457764, -0.0152588, 0, 0
138614193, 0.0434766, 0.0158936, 0.0247119, 0.0552686, -0.0146783, 8.03882, -6.28476, 0.167847, 0.0305176, 0.0152588, 0, 0
138614203, 0.0448096, 0.0154834, 0.0225586, 0.0560889, -0.0366958, 8.08041, -6.31167, 0.0152588, -0.0152588, 0.0152588, 0, 0
138614213, 0.0448096, 0.0137402, 0.0241992, 0.0560889, -0.0269102, 8.06573, -6.33613, -0.12207, -0.0762939, 0.0305176, 0, 0
138614223, 0.0418359, 0.0167139, 0.0247119, 0.0560889, -0.0440349, 8.03393, -6.34103, -0.335693, -0.0915527, 0.0457764, 0, 0
138614233, 0.0422461, 0.0154834, 0.0229687, 0.0569092, -0.0366958, 8.02414, -6.31901, -0.274658, -0.0152588, -0.0305176, 0, 0
138614243, 0.0430664, 0.0154834, 0.0237891, 0.0569092, -0.0562668, 8.03637, -6.28721, -0.12207, -0.0610352, 0.0152588, 0, 0
138614253, 0.0448096, 0.017124, 0.0237891, 0.0581396, -0.0758379, 8.0486, -6.29699, 0.0610352, -0.0305176, -0.0152588, 0, 0
138614273, 0.0422461, 0.0163037, 0.0213281, 0.0552686, -0.0807307, 8.03148, -6.3288, -0.0915527, 0, -0.0152588, 0, 0
138614283, 0.0434766, 0.0163037, 0.0217383, 0.056499, -0.0733915, 7.99478, -6.33369, -0.167847, 0, -0.0610352, 0, 0
138614293, 0.0452197, 0.0158936, 0.0221484, 0.0552686, -0.0978554, 7.98989, -6.29699, -0.167847, 0.0305176, 0, 0, 0
138614303, 0.0434766, 0.0158936, 0.0221484, 0.05896, -0.0807307, 8.02414, -6.26519, -0.0457764, -0.0305176, -0.0610352, 0, 0
138614313, 0.0434766, 0.017124, 0.0229687, 0.0581396, -0.0905162, 8.03148, -6.25785, 0.0152588, -0.0457764, -0.0457764, 0, 0
138614323, 0.0456299, 0.0167139, 0.0217383, 0.0548584, -0.0905162, 7.97032, -6.29699, 0.0152588, -0.0305176, 0.0152588, 0, 0
138614333, 0.0434766, 0.0150732, 0.0229687, 0.0548584, -0.0709451, 7.90916, -6.35571, -0.167847, 0.0457764, -0.0610352, 0, 0
138614343, 0.0397852, 0.0163037, 0.0225586, 0.0573193, -0.0709451, 7.92384, -6.34347, -0.152588, 0.0610352, 0.0915527, 0, 0
138614363, 0.0430664, 0.0133301, 0.0237891, 0.0581396, -0.0440349, 7.98744, -6.30433, -0.0152588, -0.0610352, 0.0152588, 0, 0
138614373, 0.0422461, 0.0163037, 0.0221484, 0.056499, -0.0415885, 7.99968, -6.29944, 0.0457764, -0.0305176, 0.0152588, 0, 0
138614383, 0.0430664, 0.0167139, 0.0247119, 0.056499, -0.031803, 7.95809, -6.31901, -0.0762939, 0.0915527, 0.0762939, 0, 0
138614393, 0.0448096, 0.0167139, 0.0217383, 0.0573193, -0.0195711, 7.94096, -6.34837, -0.0915527, -0.0457764, 0.12207, 0, 0
138614403, 0.0418359, 0.0167139, 0.0217383, 0.0539355, -0.0195711, 7.96543, -6.34347, -0.0305176, -0.0457764, 0.0305176, 0, 0
138614413, 0.0401953, 0.017124, 0.0255322, 0.0585498, -0.0342494, 7.99478, -6.32146, -0.0305176, 0.0305176, 0.0457764, 0, 0
138614423, 0.0401953, 0.0179443, 0.0251221, 0.0569092, -0.0464813, 8.04126, -6.33124, 0.0457764, -0.0305176, 0.0610352, 0, 0
138614433, 0.0438867, 0.0167139, 0.0229687, 0.0569092, -0.0513741, 8.06818, -6.3288, -0.152588, 0.0762939, 0.0457764, 0, 0
138614453, 0.04604, 0.0154834, 0.0263525, 0.0577295, -0.0660524, 7.98255, -6.38262, -0.228882, 0.0457764, -0.0305176, 0, 0
138614463, 0.0422461, 0.0163037, 0.0263525, 0.056499, -0.0880698, 7.97521, -6.39485, -0.259399, 0.0152588, -0.0152588, 0, 0
138614473, 0.0422461, 0.0191748, 0.0259424, 0.0573193, -0.0880698, 7.97766, -6.35571, -0.106812, 0.0610352, -0.0152588, 0, 0
138614483, 0.0438867, 0.0179443, 0.0237891, 0.0573193, -0.0905162, 8.00212, -6.31901, -0.0457764, 0.0152588, 0.0305176, 0, 0
138614493, 0.0438867, 0.0200977, 0.0255322, 0.0569092, -0.0758379, 8.04371, -6.29944, 0, 0.0152588, -0.0305176, 0, 0
138614503, 0.0452197, 0.0163037, 0.0255322, 0.0573193, -0.0562668, 8.08285, -6.28231, -0.0915527, 0.0915527, -0.0152588, 0, 0
138614513, 0.0422461, 0.0163037, 0.0255322, 0.0585498, -0.0195711, 8.08041, -6.28721, -0.12207, -0.0152588, 0.0457764, 0, 0
138614533, 0.0434766, 0.0175342, 0.0267627, 0.056499, -0.0269102, 8.03882, -6.30923, -0.183105, -0.0152588, -0.0152588, 0, 0
138614543, 0.0414258, 0.0158936, 0.0259424, 0.056499, -0.0293566, 8.0168, -6.30923, -0.12207, 0, 0.0152588, 0, 0
138614553, 0.0418359, 0.0179443, 0.0229687, 0.0573193, -0.031803, 7.98744, -6.34837, -0.0762939, -0.0152588, 0, 0, 0
138614563, 0.04604, 0.0179443, 0.0229687, 0.0560889, -0.0293566, 7.99234, -6.33124, -0.0762939, -0.0457764, 0, 0, 0
138614573, 0.0426563, 0.0158936, 0.0251221, 0.0581396, -0.0562668, 8.01191, -6.34592, -0.0152588, -0.0610352, -0.0305176, 0, 0
138614583, 0.0426563, 0.0158936, 0.0233789, 0.0573193, -0.0244638, 8.00457, -6.29944, -0.0305176, 0.0152588, 0.0152588, 0, 0
138614593, 0.0426563, 0.017124, 0.0241992, 0.0573193, -0.0440349, 8.02169, -6.31656, -0.0762939, -0.0152588, -0.0762939, 0, 0
138614603, 0.0464502, 0.0141504, 0.0247119, 0.0573193, -0.0415885, 8.02903, -6.31167, -0.106812, 0.0152588, 0, 0, 0
138614623, 0.0422461, 0.0154834, 0.0267627, 0.05896, -0.0244638, 8.01191, -6.27742, -0.152588, -0.0610352, -0.0305176, 0, 0
138614633, 0.0422461, 0.0158936, 0.0241992, 0.060293, -0.0391421, 7.99723, -6.31412, -0.152588, 0, -0.0762939, 0, 0
138614643, 0.0438867, 0.0137402, 0.0233789, 0.060293, -0.031803, 7.98255, -6.31167, -0.0610352, -0.0305176, -0.0762939, 0, 0
138614653, 0.0426563, 0.0137402, 0.0247119, 0.0556787, -0.063606, 7.97277, -6.3239, -0.0152588, 0.167847, -0.0915527, 0, 0
138614663, 0.0434766, 0.0137402, 0.0213281, 0.0577295, -0.0562668, 7.97277, -6.30433, -0.0305176, -0.0610352, -0.0305176, 0, 0
138614673, 0.0456299, 0.017124, 0.0213281, 0.0581396, -0.063606, 7.97032, -6.29944, -0.0152588, 0, -0.0305176, 0, 0
138614683, 0.0456299, 0.0133301, 0.0233789, 0.0573193, -0.0587132, 7.98744, -6.28965, 0.0152588, 0.0152588, -0.0305176, 0, 0
138614703, 0.0422461, 0.0163037, 0.0259424, 0.0577295, -0.063606, 7.99478, -6.32146, -0.0305176, -0.0762939, 0, 0, 0
138614713, 0.0434766, 0.0175342, 0.0247119, 0.0594727, -0.0733915, 7.9801, -6.31656, 0.0762939, -0.0610352, 0, 0, 0
138614723, 0.0426563, 0.0175342, 0.0247119, 0.0577295, -0.0807307, 7.95564, -6.35326, -0.0915527, -0.0305176, 0.0152588, 0, 0
138614733, 0.0426563, 0.0167139, 0.0233789, 0.0556787, -0.0929626, 7.97521, -6.35326, -0.0762939, 0.0610352, 0.0305176, 0, 0
138614743, 0.0430664, 0.0167139, 0.0241992, 0.0577295, -0.095409, 7.97521, -6.34837, -0.0457764, -0.0152588, 0.0305176, 0, 0
138614753, 0.0414258, 0.0167139, 0.0229687, 0.0577295, -0.102748, 7.96787, -6.3606, -0.0152588, -0.0152588, 0.0457764, 0, 0
138614763, 0.0438867, 0.0167139, 0.0241992, 0.0577295, -0.0880698, 7.96543, -6.38017, -0.0762939, -0.0152588, -0.0152588, 0, 0
138614773, 0.0397852, 0.0167139, 0.0241992, 0.0548584, -0.102748, 7.97032, -6.38262, -0.106812, -0.0305176, 0.0152588, 0, 0
138614793, 0.0414258, 0.0145605, 0.0221484, 0.0569092, -0.0807307, 7.99234, -6.34592, -0.137329, -0.0152588, 0, 0, 0
138614803, 0.0430664, 0.0167139, 0.0255322, 0.0569092, -0.0611596, 8.02169, -6.31167, -0.0305176, 0.0457764, 0, 0, 0
138614813, 0.0468603, 0.0150732, 0.0233789, 0.0560889, -0.0538205, 8.03393, -6.3288, -0.0762939, 0.0762939, 0.0305176, 0, 0
138614823, 0.0422461, 0.0150732, 0.0233789, 0.0552686, -0.0538205, 8.04371, -6.31656, -0.106812, 0.0915527, 0.0305176, 0, 0
138614833, 0.0426563, 0.0141504, 0.0237891, 0.0577295, -0.0464813, 8.03148, -6.37772, -0.198364, 0.0457764, 0, 0, 0
138614843, 0.0426563, 0.0167139, 0.0233789, 0.0581396, -0.0391421, 8.00212, -6.35571, -0.259399, 0, 0, 0, 0
138614853, 0.0426563, 0.0154834, 0.0229687, 0.0581396, -0.0415885, 7.99968, -6.3288, -0.198364, 0, 0, 0, 0
138614873, 0.0426563, 0.0163037, 0.0233789, 0.05896, -0.031803, 8.00702, -6.31901, -0.152588, 0.0457764, -0.0305176, 0, 0
138614883, 0.0430664, 0.0163037, 0.0233789, 0.0573193, -0.0293566, 8.02169, -6.3239, -0.106812, 0.0457764, -0.0915527, 0, 0
138614893, 0.0430664, 0.0183545, 0.0251221, 0.0556787, -0.0171247, 8.01191, -6.30189, -0.167847, -0.0610352, 0.0152588, 0, 0
138614903, 0.0414258, 0.0179443, 0.0217383, 0.0556787, 0.00489277, 8.00212, -6.28721, -0.12207, -0.0457764, 0, 0, 0
138614913, 0.0430664, 0.017124, 0.0217383, 0.0569092, -0.0146783, 8.00946, -6.26519, -0.12207, 0.0457764, -0.0762939, 0, 0
138614923, 0.0410156, 0.017124, 0.0233789, 0.0581396, -0.0122319, 8.03148, -6.2554, -0.0610352, -0.0305176, -0.0457764, 0, 0
138614933, 0.0434766, 0.0154834, 0.0233789, 0.0573193, -0.0293566, 8.05105, -6.25051, 0.0915527, -0.0305176, -0.0152588, 0, 0
138614943, 0.0434766, 0.0154834, 0.0247119, 0.0560889, -0.0440349, 8.02659, -6.30189, 0.0762939, 0, -0.0762939, 0, 0
138614963, 0.0438867, 0.0150732, 0.0241992, 0.0548584, -0.0611596, 7.9801, -6.34837, -0.152588, 0, 0.0152588, 0, 0
138614973, 0.0418359, 0.0158936, 0.020918, 0.05896, -0.063606, 7.96787, -6.33369, -0.0915527, 0.0152588, 0.0152588, 0, 0
138614983, 0.0442969, 0.0158936, 0.020918, 0.0577295, -0.102748, 7.97766, -6.3288, -0.0762939, -0.137329, -0.0610352, 0, 0
138614993, 0.0438867, 0.0158936, 0.0237891, 0.0577295, -0.107641, 7.95809, -6.3239, -0.0305176, -0.0610352, 0.0915527, 0, 0
138615003, 0.0438867, 0.0163037, 0.0247119, 0.0569092, -0.100302, 7.97521, -6.35081, 0.152588, -0.0610352, 0.0457764, 0, 0
138615013, 0.0426563, 0.0158936, 0.0229687, 0.0569092, -0.110087, 7.99478, -6.33858, 0.0457764, -0.0152588, 0.0152588, 0, 0
138615023, 0.0430664, 0.0163037, 0.0255322, 0.0556787, -0.117426, 8.02659, -6.33369, -0.0762939, -0.0610352, 0.0457764, 0, 0
138615043, 0.0448096, 0.0175342, 0.0263525, 0.0552686, -0.100302, 8.01435, -6.3239, -0.137329, 0.0915527, 0.0305176, 0, 0
138615053, 0.0448096, 0.0158936, 0.0221484, 0.0594727, -0.105195, 7.97277, -6.33858, -0.183105, 0.0610352, 0.0152588, 0, 0
138615063, 0.0434766, 0.0163037, 0.0229687, 0.0594727, -0.0905162, 7.96298, -6.35326, -0.259399, 0.0762939, 0.0610352, 0, 0
138615073, 0.0456299, 0.0141504, 0.0225586, 0.0560889, -0.0758379, 7.96298, -6.34347, -0.198364, 0.0152588, 0.12207, 0, 0
138615083, 0.0456299, 0.0141504, 0.020918, 0.0581396, -0.0611596, 7.97032, -6.36549, -0.152588, 0.0915527, 0.0610352, 0, 0
138615093, 0.0426563, 0.0158936, 0.020918, 0.0560889, -0.0464813, 7.97766, -6.33613, -0.0610352, 0.0457764, 0.0915527, 0, 0
138615103, 0.0426563, 0.0137402, 0.0221484, 0.0585498, -0.0587132, 7.99968, -6.34347, -0.0305176, 0.106812, 0.0610352, 0, 0
138615113, 0.0418359, 0.0175342, 0.0241992, 0.0585498, -0.0342494, 7.985, -6.34837, -0.12207, -0.0762939, 0.0610352, 0, 0
138615133, 0.0434766, 0.0179443, 0.0225586, 0.0573193, -0.0269102, 8.0168, -6.32635, -0.198364, -0.0305176, 0.0152588, 0, 0
138615143, 0.0430664, 0.0154834, 0.0225586, 0.0577295, -0.0122319, 7.99968, -6.34592, -0.12207, 0, 0.0152588, 0, 0
138615153, 0.0430664, 0.0137402, 0.0225586, 0.0569092, -0.0122319, 7.99723, -6.31901, -0.0762939, -0.0610352, 0.0305176, 0, 0
138615163, 0.0422461, 0.0154834, 0.0255322, 0.0548584, -0.031803, 7.99723, -6.3239, -0.106812, -0.0305176, 0.0305176, 0, 0
138615173, 0.0397852, 0.0154834, 0.0233789, 0.0548584, -0.00978554, 8.00212, -6.31412, -0.0152588, -0.0305176, 0, 0, 0
138615183, 0.0438867, 0.0154834, 0.0233789, 0.0585498, -0.0220175, 8.02169, -6.29455, -0.0305176, 0.0305176, -0.0152588, 0, 0
138615193, 0.0442969, 0.0154834, 0.0233789, 0.0598828, -0.0269102, 8.04371, -6.30189, -0.137329, 0.0305176, -0.0457764, 0, 0
138615213, 0.0418359, 0.0167139, 0.0241992, 0.0577295, -0.0440349, 8.03148, -6.29944, -0.0457764, 0.0457764, -0.0762939, 0, 0
138615223, 0.0438867, 0.0167139, 0.0263525, 0.0577295, -0.031803, 8.03393, -6.2921, -0.0762939, 0.0152588, -0.0305176, 0, 0
138615233, 0.0430664, 0.0163037, 0.0225586, 0.0581396, -0.0538205, 8.03882, -6.30923, -0.0915527, -0.0305176, -0.0457764, 0, 0
138615243, 0.0434766, 0.0163037, 0.0225586, 0.0569092, -0.0758379, 8.02903, -6.31901, -0.183105, -0.0152588, -0.0610352, 0, 0
138615253, 0.0452197, 0.0179443, 0.0233789, 0.0569092, -0.0807307, 8.03148, -6.30189, -0.152588, 0, -0.0305176, 0, 0
138615263, 0.0452197, 0.0141504, 0.0229687, 0.0569092, -0.0929626, 7.99968, -6.3239, -0.12207, 0.0152588, -0.0610352, 0, 0
138615273, 0.0422461, 0.0158936, 0.0229687, 0.0569092, -0.0758379, 8.00212, -6.32146, -0.137329, 0.0152588, -0.0610352, 0, 0
138615283, 0.0430664, 0.0154834, 0.0233789, 0.0581396, -0.0758379, 8.0168, -6.31901, -0.106812, 0.0152588, 0.0305176, 0, 0
138615303, 0.0410156, 0.0163037, 0.0205078, 0.0585498, -0.0856234, 8.02169, -6.30678, -0.0610352, 0.0762939, 0.0610352, 0, 0
138615313, 0.0410156, 0.0154834, 0.0225586, 0.0577295, -0.0733915, 8.01191, -6.30189, 0.0305176, 0.0305176, 0.0762939, 0, 0
138615323, 0.0456299, 0.0183545, 0.0251221, 0.0577295, -0.0709451, 8.02659, -6.30189, -0.0457764, -0.0610352, 0.0610352, 0, 0
138615333, 0.0438867, 0.0145605, 0.0247119, 0.0581396, -0.0660524, 8.04371, -6.32146, -0.0152588, 0.0457764, 0.0610352, 0, 0
138615343, 0.0426563, 0.0145605, 0.020918, 0.0569092, -0.0587132, 8.00946, -6.32635, -0.0610352, -0.0457764, 0.0457764, 0, 0
138615353, 0.0438867, 0.017124, 0.020918, 0.056499, -0.0758379, 7.99478, -6.33858, -0.106812, -0.0305176, 0.0305176, 0, 0
138615363, 0.0406055, 0.0150732, 0.0233789, 0.056499, -0.0464813, 7.98255, -6.36549, -0.106812, 0, 0.0762939, 0, 0
138615383, 0.0418359, 0.0191748, 0.0251221, 0.0560889, -0.0293566, 7.9801, -6.33613, -0.106812, -0.0305176, -0.0152588, 0, 0
138615393, 0.0430664, 0.0167139, 0.0237891, 0.0556787, -0.0366958, 7.98255, -6.33369, -0.106812, 0.0152588, -0.0610352, 0, 0
138615403, 0.0430664, 0.0167139, 0.0237891, 0.0569092, -0.0464813, 7.99968, -6.33124, -0.106812, -0.0305176, -0.0610352, 0, 0
138615413, 0.0410156, 0.0150732, 0.0221484, 0.0577295, -0.0391421, 7.99478, -6.31412, -0.12207, 0.0305176, -0.0152588, 0, 0
138615423, 0.0410156, 0.0167139, 0.0217383, 0.0577295, -0.0464813, 7.99234, -6.32635, -0.167847, 0, -0.0762939, 0, 0
138615433, 0.0438867, 0.017124, 0.020918, 0.0577295, -0.0220175, 8.00457, -6.33124, -0.167847, 0.0305176, -0.0305176, 0, 0
138615443, 0.0430664, 0.0167139, 0.0247119, 0.0585498, -0.0489277, 7.99723, -6.33124, -0.213623, -0.0610352, -0.0305176, 0, 0
138615453, 0.0438867, 0.0167139, 0.0247119, 0.0548584, -0.0244638, 7.95809, -6.33858, -0.152588, 0, -0.0305176, 0, 0
138615473, 0.0452197, 0.0145605, 0.0233789, 0.0585498, -0.0342494, 7.97032, -6.35081, 0.0610352, 0.0152588, -0.106812, 0, 0
138615483, 0.0442969, 0.017124, 0.0237891, 0.0585498, -0.0489277, 8.02169, -6.34103, 0, 0.0152588, -0.0305176, 0, 0
138615493, 0.0426563, 0.0175342, 0.0247119, 0.0569092, -0.0538205, 8.03393, -6.35815, -0.0762939, -0.12207, -0.0457764, 0, 0
138615503, 0.0452197, 0.0175342, 0.0247119, 0.056499, -0.0684988, 8.03882, -6.35571, -0.213623, 0, -0.0152588, 0, 0
138615513, 0.0434766, 0.0167139, 0.0247119, 0.0544482, -0.0733915, 8.01435, -6.34347, -0.244141, -0.0457764, -0.0457764, 0, 0
138615523, 0.0434766, 0.0167139, 0.0225586, 0.0594727, -0.0929626, 8.0168, -6.31167, -0.305176, 0.0457764, -0.0457764, 0, 0
138615533, 0.0438867, 0.0158936, 0.0229687, 0.0594727, -0.095409, 8.02659, -6.28476, -0.0915527, 0.0305176, -0.0610352, 0, 0
138615553, 0.0456299, 0.0154834, 0.0217383, 0.0581396, -0.0905162, 8.02414, -6.27253, -0.0305176, 0.106812, -0.106812, 0, 0
138615563, 0.0442969, 0.0175342, 0.0217383, 0.0581396, -0.102748, 8.02903, -6.30678, -0.0152588, 0.0610352, -0.0457764, 0, 0
138615573, 0.0434766, 0.017124, 0.0237891, 0.0569092, -0.0856234, 8.03148, -6.2921, -0.152588, 0.0457764, -0.0610352, 0, 0
138615583, 0.0434766, 0.0137402, 0.0241992, 0.0569092, -0.0856234, 8.03148, -6.29944, -0.213623, 0.0610352, -0.0610352, 0, 0
138615593, 0.0410156, 0.0141504, 0.0251221, 0.0581396, -0.0807307, 8.02903, -6.31656, -0.106812, 0.0457764, 0, 0, 0
138615603, 0.0452197, 0.0141504, 0.0251221, 0.0569092, -0.0831771, 7.96543, -6.31901, -0.0915527, 0.0610352, -0.0457764, 0, 0
138615613, 0.0456299, 0.0175342, 0.0251221, 0.056499, -0.0758379, 7.95809, -6.31412, 0.0152588, 0.0610352, 0.0152588, 0, 0
138615623, 0.0418359, 0.0163037, 0.0205078, 0.0577295, -0.0587132, 7.96298, -6.34347, -0.106812, -0.0610352, 0.0457764, 0, 0
138615643, 0.0422461, 0.0167139, 0.0229687, 0.0573193, -0.0146783, 8.06818, -6.29699, 0.0610352, -0.0457764, -0.0152588, 0, 0
138615693, 0.04604, 0.0145605, 0.0217383, 0.0594727, -0.0122319, 8.03637, -6.36305, -0.0610352, 0, -0.0152588, 0, 0
138615703, 0.0448096, 0.017124, 0.0241992, 0.0569092, -0.0293566, 8.00457, -6.37772, -0.0915527, 0, -0.0457764, 0, 0
138615713, 0.0426563, 0.017124, 0.0241992, 0.0577295, -0.031803, 7.97032, -6.36305, -0.0457764, -0.0152588, 0.0152588, 0, 0
138615723, 0.0430664, 0.0175342, 0.0225586, 0.0581396, -0.0538205, 7.98255, -6.34837, 0.0305176, -0.0457764, 0.0305176, 0, 0
138615733, 0.0430664, 0.019585, 0.0217383, 0.056499, -0.0538205, 8.00457, -6.37038, -0.0610352, 0.0305176, -0.0610352, 0, 0
138615753, 0.0434766, 0.0179443, 0.0241992, 0.056499, -0.0660524, 8.01925, -6.37528, -0.137329, 0.137329, 0, 0, 0
138615763, 0.0410156, 0.0179443, 0.019585, 0.0585498, -0.063606, 7.99723, -6.33369, -0.320435, 0.0305176, -0.0457764, 0, 0
138615773, 0.0442969, 0.0163037, 0.019585, 0.0585498, -0.0733915, 8.02414, -6.33613, -0.228882, 0.0152588, -0.0762939, 0, 0
138615783, 0.0422461, 0.0175342, 0.0229687, 0.0556787, -0.0905162, 8.02659, -6.45356, -1.0376, 0.183105, -0.106812, 0, 0
138615793, 0.0422461, 0.0167139, 0.0241992, 0.0556787, -0.159015, 8.06573, -6.58077, -2.34985, 0.228882, -0.396728, 0, 0
138615803, 0.0430664, 0.017124, 0.0217383, 0.0569092, -0.195711, 7.92384, -6.34837, -2.62451, 0.0305176, -0.167847, 0, 0
138615813, 0.0434766, 0.017124, 0.020918, 0.0577295, -0.210389, 8.0535, -6.27987, -1.46484, -0.0610352, 0.259399, 0, 0
138615823, 0.0418359, 0.0145605, 0.020918, 0.056499, -0.195711, 7.83088, -5.90557, 0.579834, -0.167847, 0.106812, 0, 0
138615843, 0.0434766, 0.0183545, 0.0229687, 0.056499, 0.222621, 7.95075, -6.40708, 2.70081, 0.12207, -0.0915527, 0, 0
138615853, 0.0426563, 0.0150732, 0.0247119, 0.056499, 0.249531, 7.99234, -6.55876, 1.60217, -0.198364, 0.274658, 0, 0
138615863, 0.0426563, 0.0158936, 0.0237891, 0.0598828, 0.112534, 8.16848, -6.48781, -0.610352, -0.289917, 0.350952, 0, 0
138615873, 0.0434766, 0.0158936, 0.0237891, 0.0585498, -0.0562668, 8.21006, -6.16489, -1.8158, -0.12207, -0.0305176, 0, 0
138615883, 0.0422461, 0.0179443, 0.0225586, 0.056499, -0.159015, 8.00212, -6.04746, -0.778198, -0.198364, -0.244141, 0, 0
138615893, 0.0422461, 0.017124, 0.0217383, 0.060293, -0.195711, 7.65718, -6.09884, 1.17493, -0.198364, 0.12207, 0, 0
138615903, 0.0418359, 0.0187646, 0.0247119, 0.060293, -0.225067, 7.84066, -6.28476, 1.77002, -0.167847, 0.244141, 0, 0
138615923, 0.0422461, 0.0175342, 0.0213281, 0.0573193, 0.0171247, 8.41801, -6.45112, -0.198364, -0.0762939, 0.0610352, 0, 0
138615933, 0.0452197, 0.0145605, 0.0251221, 0.056499, 0.132105, 8.19294, -6.40219, -1.02234, -0.106812, -0.0762939, 0, 0
138615943, 0.0452197, 0.0183545, 0.0213281, 0.0556787, 0.095409, 7.92628, -6.33858, -1.11389, 0, -0.0915527, 0, 0
138615953, 0.0438867, 0.0167139, 0.0229687, 0.0556787, 0.0220175, 7.86268, -6.31901, -0.488281, -0.0305176, -0.106812, 0, 0
138615963, 0.0434766, 0.0183545, 0.0241992, 0.0598828, -0.031803, 7.95075, -6.30923, 0.518799, -0.0152588, -0.0915527, 0, 0
138615973, 0.0452197, 0.0183545, 0.0255322, 0.0598828, -0.0905162, 8.0168, -6.34103, 0.778198, 0.0762939, -0.0305176, 0, 0
138615983, 0.0442969, 0.017124, 0.0255322, 0.0556787, -0.173693, 8.06328, -6.46824, 0.183105, 0.12207, -0.152588, 0, 0
138615993, 0.0442969, 0.0154834, 0.0225586, 0.0581396, -0.190818, 8.07062, -6.48536, -0.656128, 0.0610352, -0.106812, 0, 0
138616013, 0.0418359, 0.0167139, 0.0229687, 0.056499, -0.0758379, 7.98989, -6.17712, -0.518799, -0.0610352, -0.0457764, 0, 0
138616023, 0.0448096, 0.0167139, 0.0241992, 0.0573193, -0.0513741, 7.9483, -6.23094, 0, -0.0152588, -0.12207, 0, 0
138616033, 0.0430664, 0.0175342, 0.0241992, 0.0585498, -0.0195711, 7.95564, -6.31656, 0.274658, 0.0762939, -0.0610352, 0, 0
138616043, 0.0414258, 0.0179443, 0.0237891, 0.0569092, 0.0195711, 7.95319, -6.37038, 0.183105, -0.12207, 0.0152588, 0, 0
138616053, 0.0414258, 0.0167139, 0.0237891, 0.0560889, -0.00733915, 7.99478, -6.32635, -0.152588, -0.137329, 0.0152588, 0, 0
138616063, 0.0434766, 0.0183545, 0.0237891, 0.0560889, -0.0807307, 7.9801, -6.27008, -0.38147, -0.0762939, -0.0457764, 0, 0
138616073, 0.0430664, 0.0154834, 0.0247119, 0.0560889, -0.110087, 7.87736, -6.2921, -0.152588, 0, -0.0457764, 0, 0
138616093, 0.0434766, 0.0187646, 0.0229687, 0.05896, -0.0905162, 7.89448, -6.3606, 0.488281, -0.167847, 0.106812, 0, 0
138616103, 0.0434766, 0.0175342, 0.0233789, 0.0581396, -0.0464813, 8.0853, -6.31656, 0.289917, -0.0915527, 0.198364, 0, 0
138616113, 0.0448096, 0.0187646, 0.0233789, 0.0581396, -0.0244638, 8.17092, -6.3288, -0.12207, -0.106812, 0.0762939, 0, 0
138616123, 0.0438867, 0.0183545, 0.0217383, 0.0569092, -0.0122319, 8.07796, -6.34837, -0.442505, 0, -0.0305176, 0, 0
138616133, 0.0438867, 0.0183545, 0.0217383, 0.0544482, -0.031803, 7.98744, -6.32635, -0.305176, 0, -0.0305176, 0, 0
138616143, 0.0442969, 0.0175342, 0.0229687, 0.0556787, -0.0464813, 7.99478, -6.29944, -0.106812, -0.0610352, -0.0305176, 0, 0
138616153, 0.0442969, 0.0158936, 0.0237891, 0.0573193, -0.0856234, 7.98989, -6.33858, 0.0457764, 0.0610352, -0.0152588, 0, 0
138616163, 0.0414258, 0.0183545, 0.0247119, 0.0573193, -0.095409, 7.98255, -6.36305, 0.0457764, 0.0610352, -0.0762939, 0, 0
138616183, 0.0422461, 0.0167139, 0.0247119, 0.0573193, -0.0978554, 8.07551, -6.35815, -0.305176, 0.0762939, 0, 0, 0
138616193, 0.0448096, 0.017124, 0.0247119, 0.0569092, -0.0758379, 8.07796, -6.30189, -0.427246, 0.0610352, -0.0457764, 0, 0
138616203, 0.0438867, 0.0179443, 0.0241992, 0.0594727, -0.0269102, 8.06328, -6.27253, -0.289917, 0.0152588, 0.0305176, 0, 0
138616213, 0.0438867, 0.017124, 0.0233789, 0.0594727, -0.0293566, 8.01925, -6.28231, -0.0762939, 0.0152588, -0.0305176, 0, 0
138616223, 0.0442969, 0.0167139, 0.0213281, 0.0585498, -0.0415885, 8.00212, -6.33613, 0.0152588, 0, 0.0152588, 0, 0
138616233, 0.0406055, 0.0167139, 0.0233789, 0.0581396, -0.0440349, 7.99968, -6.36549, -0.137329, -0.0457764, 0.0152588, 0, 0
138616243, 0.0452197, 0.0183545, 0.0233789, 0.0573193, -0.063606, 8.0168, -6.31412, -0.198364, -0.0915527, 0.0305176, 0, 0
138616263, 0.0430664, 0.0167139, 0.027583, 0.0581396, -0.0856234, 7.96543, -6.29455, 0.0915527, 0.0457764, 0.0305176, 0, 0
138616273, 0.0464502, 0.0183545, 0.0255322, 0.0581396, -0.0611596, 7.92384, -6.34592, 0.198364, -0.0457764, 0.0457764, 0, 0
138616283, 0.0430664, 0.0187646, 0.0225586, 0.060293, -0.0513741, 7.95809, -6.32635, 0.305176, -0.183105, 0.0457764, 0, 0
138616293, 0.0434766, 0.0187646, 0.0225586, 0.0594727, -0.0244638, 8.05105, -6.2921, 0.137329, -0.0610352, 0.0762939, 0, 0
138616303, 0.0448096, 0.0163037, 0.0225586, 0.0552686, -0.0171247, 8.05105, -6.29944, -0.106812, -0.0152588, 0, 0, 0
138616313, 0.0448096, 0.0187646, 0.0233789, 0.0577295, -0.0293566, 8.02169, -6.32635, -0.305176, -0.0152588, -0.0305176, 0, 0
138616323, 0.0430664, 0.0200977, 0.0237891, 0.0577295, -0.0146783, 7.96053, -6.30433, -0.259399, -0.0305176, 0, 0, 0
138616333, 0.0434766, 0.0141504, 0.0241992, 0.056499, -0.0220175, 7.94341, -6.30189, -0.137329, 0, -0.0762939, 0, 0
138616353, 0.0448096, 0.0183545, 0.0217383, 0.0577295, -0.0562668, 7.94341, -6.35815, -0.0152588, 0, -0.0762939, 0, 0
138616363, 0.04604, 0.0179443, 0.0233789, 0.0573193, -0.0733915, 7.98255, -6.35571, -0.106812, 0.0762939, 0, 0, 0
138616373, 0.04604, 0.017124, 0.0267627, 0.0573193, -0.0807307, 8.00702, -6.33858, -0.274658, 0.0152588, -0.0305176, 0, 0
138616383, 0.0452197, 0.0191748, 0.0221484, 0.05896, -0.0758379, 8.02903, -6.29455, -0.289917, 0, -0.0305176, 0, 0
138616393, 0.0430664, 0.0191748, 0.0259424, 0.05896, -0.0929626, 8.01191, -6.30923, -0.167847, 0.0305176, -0.0152588, 0, 0
138616403, 0.0442969, 0.0187646, 0.0259424, 0.0581396, -0.0464813, 8.00457, -6.29944, -0.0457764, -0.0152588, -0.0305176, 0, 0
138616413, 0.0426563, 0.0200977, 0.0229687, 0.0573193, -0.0587132, 8.01435, -6.32146, 0.0457764, -0.0152588, -0.0152588, 0, 0
138616433, 0.0422461, 0.0163037, 0.0237891, 0.05896, -0.0562668, 8.02414, -6.34837, -0.0457764, 0, 0.0152588, 0, 0
138616443, 0.0438867, 0.0163037, 0.0255322, 0.0556787, -0.0733915, 8.03393, -6.35081, -0.167847, -0.0610352, 0, 0, 0
138616453, 0.0426563, 0.0167139, 0.0255322, 0.0585498, -0.0684988, 7.98255, -6.36549, -0.0457764, -0.137329, -0.0152588, 0, 0
138616463, 0.0434766, 0.0167139, 0.0241992, 0.05896, -0.0831771, 7.97521, -6.38506, 0.0152588, -0.152588, 0.0305176, 0, 0
138616473, 0.0434766, 0.0179443, 0.0233789, 0.0573193, -0.0758379, 8.03393, -6.33613, 0, -0.106812, 0.0915527, 0, 0
138616483, 0.0430664, 0.0175342, 0.0233789, 0.0573193, -0.0538205, 8.06328, -6.31656, 0, 0, 0.0610352, 0, 0
138616493, 0.0438867, 0.0175342, 0.0251221, 0.05896, -0.0464813, 8.03393, -6.33124, -0.0762939, 0, 0.0610352, 0, 0
138616503, 0.0442969, 0.0167139, 0.0251221, 0.0569092, -0.0269102, 8.00457, -6.3288, -0.0457764, 0.0305176, 0.0915527, 0, 0
138616523, 0.0422461, 0.0179443, 0.0255322, 0.0573193, -0.0415885, 8.0535, -6.28231, -0.12207, 0.0762939, -0.0305176, 0, 0
138616533, 0.0410156, 0.0163037, 0.0241992, 0.0573193, -0.0415885, 8.02169, -6.30433, -0.137329, 0.0457764, -0.0915527, 0, 0
138616543, 0.0426563, 0.0167139, 0.0251221, 0.0585498, -0.0587132, 7.96787, -6.33613, -0.213623, 0.0762939, -0.0457764, 0, 0
138616553, 0.0422461, 0.0167139, 0.0251221, 0.060293, -0.0513741, 7.93118, -6.34837, -0.274658, 0.0457764, 0.0152588, 0, 0
138616563, 0.0438867, 0.0179443, 0.0241992, 0.0569092, -0.031803, 7.92628, -6.34592, -0.289917, 0.0457764, -0.0915527, 0, 0
138616573, 0.0456299, 0.0167139, 0.0229687, 0.05896, -0.0293566, 7.95319, -6.33613, -0.183105, 0.0915527, -0.0762939, 0, 0
138616583, 0.0456299, 0.0163037, 0.0247119, 0.05896, -0.0366958, 7.9801, -6.32635, -0.0610352, 0.0305176, -0.0610352, 0, 0
138616603, 0.0422461, 0.0154834, 0.0233789, 0.0581396, -0.0440349, 7.98255, -6.30189, -0.0152588, 0.0457764, -0.0457764, 0, 0
138616613, 0.0422461, 0.0158936, 0.0233789, 0.0594727, -0.0733915, 7.9801, -6.31656, -0.0762939, -0.0457764, 0.0457764, 0, 0
138616623, 0.04604, 0.0175342, 0.0263525, 0.060293, -0.0733915, 7.97766, -6.30923, -0.0915527, -0.0762939, 0.0610352, 0, 0
138616633, 0.04604, 0.0167139, 0.0267627, 0.060293, -0.0684988, 8.01191, -6.27498, -0.0457764, -0.0915527, 0, 0, 0
138616643, 0.0434766, 0.0158936, 0.0247119, 0.056499, -0.0660524, 8.03637, -6.29455, 0.0152588, -0.0305176, 0.0457764, 0, 0
138616653, 0.0452197, 0.0158936, 0.0251221, 0.056499, -0.0660524, 8.0486, -6.32635, 0.12207, -0.0305176, 0.0457764, 0, 0
138616663, 0.0438867, 0.0191748, 0.0251221, 0.05896, -0.0391421, 8.05594, -6.33124, 0.0305176, -0.0610352, 0.0762939, 0, 0
138616673, 0.0406055, 0.0163037, 0.0247119, 0.0598828, -0.031803, 8.04126, -6.34837, -0.0762939, -0.0152588, -0.0457764, 0, 0
138616693, 0.0406055, 0.0179443, 0.0217383, 0.0581396, -0.0562668, 8.01925, -6.35571, -0.137329, -0.0457764, 0, 0, 0
138616703, 0.0401953, 0.0179443, 0.0221484, 0.0573193, -0.0342494, 8.02659, -6.35326, -0.0610352, -0.0152588, -0.0457764, 0, 0
138616713, 0.0418359, 0.0154834, 0.0221484, 0.0585498, -0.0415885, 8.00457, -6.34592, -0.0305176, 0, -0.0457764, 0, 0
138616723, 0.0426563, 0.017124, 0.0247119, 0.0594727, -0.0660524, 8.03148, -6.35326, -0.0915527, 0.0152588, 0, 0, 0
138616733, 0.0426563, 0.017124, 0.0241992, 0.0615234, -0.0538205, 8.02903, -6.33124, -0.0915527, 0.152588, -0.0457764, 0, 0
138616743, 0.0430664, 0.017124, 0.0251221, 0.0615234, -0.0611596, 8.02414, -6.31412, -0.244141, -0.0152588, -0.0762939, 0, 0
138616753, 0.0442969, 0.0167139, 0.0237891, 0.0569092, -0.031803, 8.00946, -6.27742, -0.244141, 0.0305176, -0.0762939, 0, 0
138616773, 0.0442969, 0.0187646, 0.0233789, 0.0560889, -0.0342494, 7.94586, -6.30433, -0.0610352, 0.0305176, -0.0457764, 0, 0
138616783, 0.0430664, 0.0163037, 0.0237891, 0.0560889, -0.0489277, 7.92384, -6.3239, 0.0457764, -0.0305176, -0.0152588, 0, 0
138616793, 0.0430664, 0.0163037, 0.0221484, 0.0560889, -0.0587132, 7.94096, -6.3606, 0.0152588, -0.0610352, 0, 0, 0
138616803, 0.0438867, 0.017124, 0.0247119, 0.0585498, -0.0611596, 7.94586, -6.37528, 0.0152588, -0.0152588, 0, 0, 0
138616813, 0.0426563, 0.017124, 0.0241992, 0.0581396, -0.0538205, 7.93362, -6.37038, 0, -0.0457764, 0.0152588, 0, 0
