timestamp, current1, current2, current3, current4, accel x, accel y, accel z, degrees x, degrees y, degrees z, baro temp, baro pressure
4173, 0.00164062, 0.0494238, 0.0472705, -0.0205078, 0.584686, 0.357172, 9.6779, 0.335693, -0.457764, 0.167847, 0, 0
4183, 0.00246094, 0.0494238, 0.0472705, -0.0221484, 1.80543, 0.31803, 9.73172, 0.0762939, 0.183105, -0.0457764, 0, 0
4193, 0.00164062, 0.0472705, 0.0464502, -0.0217383, -0.665416, 0.396314, 9.86871, -0.50354, 0.640869, -0.0915527, 0, 0
4203, 0.00205078, 0.0472705, 0.0452197, -0.0191748, -0.112534, 0.457474, 9.70236, 0.610352, 0.0305176, -0.137329, 0, 0
4213, 0.00287109, 0.0472705, 0.0438867, -0.019585, 0.188372, 0.452581, 9.83691, -0.228882, 0.12207, -0.0915527, 0, 0
4223, 0.00287109, 0.0472705, 0.04604, -0.019585, -0.281334, 0.503955, 9.83936, 0.0915527, 0.457764, 0.137329, 0, 0
4233, 0.00246094, 0.0476807, 0.0442969, -0.0183545, -0.469706, 0.332708, 9.93721, 0.198364, 0.38147, 0.335693, 0, 0
4243, 0.000820312, 0.0476807, 0.0442969, -0.0179443, 0.156569, 0.464813, 9.79532, 0.259399, 0.213623, 0.320435, 0, 0
4263, 0.000820312, 0.0476807, 0.0468603, -0.0191748, -0.293566, 0.322923, 9.8785, -0.0457764, -0.167847, 0.0457764, 0, 0
4273, 0.000820312, 0.0452197, 0.0468603, -0.0191748, 0.66297, 0.261763, 9.76352, 0.50354, 0.0762939, 0.0152588, 0, 0
4283, 0.000820312, 0.0494238, 0.0442969, -0.0175342, 1.85191, 0.298459, 9.7097, 0.244141, 0.106812, -0.289917, 0, 0
4293, 0.00164062, 0.0494238, 0.0442969, -0.0205078, 2.40724, 0.22996, 9.7782, 0.396728, 0.213623, -0.442505, 0, 0
4303, 0, 0.0464502, 0.0468603, -0.019585, 3.91177, -0.127212, 8.93909, -2.48718, -1.51062, 0.946045, 0, 0
4313, 0, 0.0468603, 0.0438867, -0.0191748, 0.513741, 1.13268, 9.84425, -0.610352, 0.442505, -0.50354, 0, 0
4323, 0.00205078, 0.048501, 0.0494238, -0.020918, 0.366958, 0.743701, 9.70236, -0.12207, 0.549316, -0.701904, 0, 0
4343, 0, 0.0502441, 0.0452197, -0.019585, 1.2183, 0.741254, 9.84425, 0.0457764, -0.106812, 0.335693, 0, 0
4353, 0.00205078, 0.0489111, 0.0480908, -0.0205078, 0.770611, 0.621382, 9.75618, -0.228882, 0.305176, 0.167847, 0, 0
4363, 0.00205078, 0.0456299, 0.048501, -0.0205078, 0.310691, 0.276441, 9.7733, -0.0457764, -0.0305176, -0.137329, 0, 0
4373, 0.00123047, 0.048501, 0.048501, -0.019585, 0.349833, 0.247085, 9.70236, -0.137329, 0.228882, -0.244141, 0, 0
4383, 0.00123047, 0.0494238, 0.0456299, -0.019585, 0.281334, 0.156569, 9.80021, 0.320435, -0.0762939, -0.259399, 0, 0
4393, 0.00287109, 0.0494238, 0.0456299, -0.0191748, 0.366958, 0.242192, 9.82957, 0.137329, 0, -0.106812, 0, 0
4403, 0.000410156, 0.0480908, 0.04604, -0.0205078, 0.508848, 0.242192, 9.85893, 0.38147, -0.457764, 0.183105, 0, 0
4413, 0.00246094, 0.0472705, 0.0468603, -0.0191748, 0.550436, 0.332708, 9.8467, 0.488281, -0.50354, 0.137329, 0, 0
4433, 0.00205078, 0.0494238, 0.0456299, -0.020918, 0.388975, 0.462367, 9.83202, 1.61743, -1.2207, 0.0457764, 0, 0
4443, -0.000410156, 0.048501, 0.0464502, -0.0191748, 0.467259, 0.675202, 9.73661, 0.38147, -0.183105, -0.259399, 0, 0
4453, 0.00123047, 0.048501, 0.0464502, -0.019585, 0.242192, 0.325369, 9.7733, 0.198364, -0.152588, -0.62561, 0, 0
4463, 0.000820312, 0.0480908, 0.04604, -0.0213281, 0.479491, 0.52108, 9.71459, 0.396728, -0.595093, -0.640869, 0, 0
4473, -0.000410156, 0.0476807, 0.0476807, -0.0191748, 0.474599, 0.565115, 9.75863, -0.595093, 0.930786, -0.198364, 0, 0
4483, -0.000410156, 0.0452197, 0.0464502, -0.0191748, 0.543097, 0.232406, 9.82957, 0.640869, -0.473022, 0.137329, 0, 0
4493, 0.00246094, 0.04604, 0.0468603, -0.0200977, 0.790182, 0.557776, 9.64854, -0.0915527, -0.137329, 0.335693, 0, 0
4513, 0.000410156, 0.0472705, 0.04604, -0.019585, 0.540651, 0.435456, 9.63631, 0.488281, -0.0305176, 0.259399, 0, 0
4523, 0, 0.0476807, 0.0448096, -0.017124, 0.251978, 0.151676, 9.82223, -0.320435, -0.0305176, 0.0305176, 0, 0
4533, 0.000820312, 0.0489111, 0.04604, -0.017124, 0.308244, 0.43301, 9.74395, 0.610352, -0.137329, -0.137329, 0, 0
4543, 0.000820312, 0.049834, 0.0442969, -0.0200977, 0.450135, 0.455027, 9.80021, -0.610352, -0.137329, -0.488281, 0, 0
4553, 0.000820312, 0.049834, 0.0442969, -0.020918, 0.413439, 0.452581, 9.86627, 0.595093, 0.0152588, -0.259399, 0, 0
4563, -0.000410156, 0.0468603, 0.0442969, -0.0191748, 0.655631, 0.648292, 9.71459, -0.0457764, -0.213623, -0.0305176, 0, 0
4573, -0.000820312, 0.0464502, 0.0448096, -0.0179443, 0.528419, 0.401207, 9.9152, 0.228882, 0.0762939, 0.183105, 0, 0
4583, 0.00328125, 0.0476807, 0.0468603, -0.0205078, 0.687434, 0.579793, 9.7415, 0.0762939, 0.106812, 0.350952, 0, 0
4603, 0.00164062, 0.0480908, 0.0464502, -0.0191748, 0.408546, 0.364511, 9.71214, 0.198364, 0.183105, 0.244141, 0, 0
4613, -0.000410156, 0.0464502, 0.0442969, -0.019585, 0.193264, 0.173693, 9.81979, -0.350952, -0.350952, 0.0610352, 0, 0
4623, -0.000410156, 0.0464502, 0.0456299, -0.0213281, 0.320476, 0.278888, 9.73416, 0.350952, 0.0762939, -0.244141, 0, 0
4633, 0.000410156, 0.04604, 0.0452197, -0.020918, 0.386529, 0.369404, 9.73172, -0.228882, -0.488281, -0.350952, 0, 0
4643, 0.000410156, 0.0468603, 0.0468603, -0.020918, 0.447688, 0.357172, 9.82957, 0.473022, -0.0915527, -0.549316, 0, 0
4653, 0.000410156, 0.0502441, 0.0442969, -0.0213281, 0.643399, 0.570008, 9.73906, 0.0457764, -0.228882, -0.747681, 0, 0
4663, 0.00164062, 0.0502441, 0.0442969, -0.0187646, 0.550436, 0.310691, 9.82468, 0.0762939, -0.427246, -1.66321, 0, 0
4673, 0.00287109, 0.0456299, 0.0448096, -0.0213281, 0.501509, 0.37185, 9.79532, 0.0762939, -0.442505, -2.42615, 0, 0
4693, 0.00205078, 0.0468603, 0.0448096, -0.0205078, 0.435456, 0.325369, 9.98125, 0.0152588, -2.30408, -2.9602, 0, 0
4703, 0.00205078, 0.048501, 0.0464502, -0.0191748, 0.271549, 0.313137, 9.80266, 0, -1.84631, -1.8158, 0, 0
4713, -0.000820312, 0.048501, 0.0464502, -0.0175342, 0.420778, 0.66297, 9.62652, -0.0457764, 0.869751, 0.183105, 0, 0
4723, 0.00205078, 0.048501, 0.0472705, -0.0179443, 0.851342, 0.325369, 9.23265, -0.183105, 4.15039, 0, 0, 0
4733, 0.00287109, 0.04604, 0.0448096, -0.0183545, 0.917394, 0.621382, 9.49931, 0.0152588, 3.44849, -0.106812, 0, 0
4743, 0.00451172, 0.0468603, 0.0456299, -0.0183545, -0.29112, 0.628721, 11.2289, 2.83813, -2.73132, 0.320435, 0, 0
4753, 0.00451172, 0.0489111, 0.0464502, -0.0187646, 0.704559, 0.310691, 9.70725, -2.2583, -0.50354, 0.167847, 0, 0
4773, 0.00123047, 0.0472705, 0.0472705, -0.019585, 0.0684988, 0.369404, 9.77575, -2.16675, -1.54114, -0.12207, 0, 0
4783, 0.000410156, 0.0468603, 0.0464502, -0.019585, -0.0782843, -0.0880698, 9.81245, 1.86157, -4.21143, -0.0762939, 0, 0
4793, 0.00123047, 0.0468603, 0.0464502, -0.0183545, 0.163908, 0.844003, 10.3335, -1.67847, -3.12805, -0.228882, 0, 0
4803, 0.00123047, 0.049834, 0.0472705, -0.0183545, 0.809753, -0.286227, 9.05162, 0.244141, 1.5564, -0.167847, 0, 0
4813, 0, 0.049834, 0.0472705, -0.020918, 1.41401, 1.10577, 9.35742, 1.52588, 3.64685, 0.259399, 0, 0
4823, 0.00205078, 0.0494238, 0.04604, -0.0191748, 0.687434, 0.171247, 9.62652, -1.72424, 2.71606, 0.350952, 0, 0
4833, 0, 0.0480908, 0.0472705, -0.0183545, 0.653185, 0.675202, 9.9788, 1.14441, 2.24304, 0.350952, 0, 0
4843, 0, 0.0476807, 0.0438867, -0.0187646, 0.518633, 0.393868, 9.65343, -1.80054, 0.930786, 0.137329, 0, 0
4863, 0.00328125, 0.0464502, 0.0448096, -0.019585, -0.166354, 0.577347, 10.1916, -0.305176, 0.0457764, -0.366211, 0, 0
4873, 0.00328125, 0.0456299, 0.0448096, -0.0163037, 0.462367, 0.0146783, 9.23999, -0.610352, 0.518799, -0.411987, 0, 0
4883, 0.00164062, 0.0472705, 0.0434766, -0.0187646, -0.144337, 0.616489, 10.4852, 1.43433, -1.02234, -0.335693, 0, 0
4893, 0.00164062, 0.0468603, 0.0476807, -0.0191748, 0.677648, 0.296012, 9.61918, -1.2207, 0.152588, 0.0152588, 0, 0
4903, 0.00328125, 0.0448096, 0.0448096, -0.0191748, 0.787736, 0.491723, 9.74639, 1.12915, 0.62561, 0.320435, 0, 0
4913, 0.00328125, 0.0464502, 0.0448096, -0.0191748, 0.807307, 0.692327, 9.73172, -1.09863, 0.610352, 0.350952, 0, 0
4923, 0.00123047, 0.0464502, 0.0448096, -0.0187646, 0.640953, 0.215282, 9.70481, 0.762939, -0.656128, 0.549316, 0, 0
4943, 0.00246094, 0.048501, 0.0456299, -0.0183545, 0.396314, 0.171247, 9.85648, 0.183105, -0.457764, -0.213623, 0, 0
4953, -0.000410156, 0.0476807, 0.0472705, -0.0183545, 0.100302, 0.288673, 9.85648, 0.0305176, 0.106812, -0.50354, 0, 0
4963, -0.000410156, 0.048501, 0.0442969, -0.017124, 0.303352, 0.462367, 9.94211, -0.0915527, -0.0457764, -0.534058, 0, 0
4973, 0.00123047, 0.048501, 0.0442969, -0.017124, 0.286227, 0.266656, 9.94211, 0.0610352, -1.86157, -0.228882, 0, 0
4983, 0.00246094, 0.048501, 0.0468603, -0.0183545, 0.464813, 0.52108, 9.89318, 0.289917, -2.63977, 0.0915527, 0, 0
4993, 0.00164062, 0.0468603, 0.0464502, -0.0183545, 0.572454, 0.442796, 9.78554, -0.0457764, -3.26538, 0.457764, 0, 0
5003, 0.00123047, 0.0464502, 0.0476807, -0.0205078, 0.508848, 0.60915, 9.3036, -0.534058, -1.83105, 0.549316, 0, 0
5013, 0.00123047, 0.0468603, 0.0472705, -0.0205078, 0.711898, 0.273995, 9.46506, 0.12207, 1.12915, 0.320435, 0, 0
5033, 0.000410156, 0.0472705, 0.0456299, -0.0191748, 0.445242, 0.479491, 9.7097, 0.0305176, 2.13623, -0.106812, 0, 0
5043, 0.00164062, 0.0480908, 0.0448096, -0.0183545, 0.555329, 0.29112, 9.86871, -0.183105, 2.21252, -0.289917, 0, 0
5053, 0.00246094, 0.0456299, 0.0456299, -0.0179443, 0.594471, 0.413439, 9.70481, 0.0305176, 2.05994, -0.350952, 0, 0
5063, 0.00246094, 0.049834, 0.0468603, -0.0179443, 0.543097, 0.220175, 10.1011, -0.38147, 0.244141, -0.213623, 0, 0
5073, 0.00287109, 0.049834, 0.0468603, -0.0183545, 0.261763, 0.330262, 9.80266, 0.640869, -0.457764, 0.0457764, 0, 0
5083, 0.000410156, 0.049834, 0.0456299, -0.0187646, 0.418332, 0.511294, 9.61674, -0.610352, 0.518799, 0.228882, 0, 0
5093, 0.00123047, 0.0472705, 0.0464502, -0.019585, 0.499062, 0.37185, 10.084, -0.0610352, -0.350952, 0.427246, 0, 0
5113, 0.00369141, 0.0480908, 0.0448096, -0.0167139, 0.540651, 0.540651, 9.9788, -0.747681, 1.15967, 0.152588, 0, 0
5123, 0.00369141, 0.0456299, 0.0452197, -0.0179443, 0.362065, 0.45992, 9.7782, 0.473022, -0.457764, 0.0457764, 0, 0
5133, 0.000410156, 0.0456299, 0.0452197, -0.0158936, 0.530865, 0.410993, 9.82223, -0.473022, 0.320435, 0.167847, 0, 0
5143, 0.00205078, 0.0464502, 0.0456299, -0.0163037, 0.760825, 0.442796, 9.95189, 0.12207, -0.0610352, -0.12207, 0, 0
5153, 0.00123047, 0.0468603, 0.0452197, -0.0150732, 0.398761, 0.134551, 9.61674, 0.198364, -0.152588, 0.0152588, 0, 0
5163, 0.000820312, 0.0452197, 0.0438867, -0.0150732, 0.72413, 0.357172, 9.82223, -0.320435, 0.289917, -0.0305176, 0, 0
5173, 0.000820312, 0.049834, 0.04604, -0.017124, 0.244638, 0.415885, 9.75863, 0.701904, -0.686645, 0.259399, 0, 0
5183, 0.00328125, 0.049834, 0.04604, -0.0187646, 0.374297, 0.415885, 9.81979, -0.50354, 0.366211, 0.106812, 0, 0
5203, 0.00205078, 0.0468603, 0.0448096, -0.0154834, 0.234853, 0.511294, 9.86137, -0.167847, -0.747681, 0.0762939, 0, 0
5213, 0.000410156, 0.0456299, 0.0448096, -0.0187646, 0.398761, 0.582239, 10.0669, 0.473022, -1.95312, 0.106812, 0, 0
5223, 0.000410156, 0.0442969, 0.0438867, -0.0187646, 0.352279, 0.430564, 10.2626, 0.0152588, -4.65393, 0.152588, 0, 0
5233, 0.00164062, 0.0442969, 0.0438867, -0.017124, 0.349833, 0.178586, 9.26935, -1.2207, -4.47083, -0.152588, 0, 0
5243, 0.00328125, 0.0442969, 0.04604, -0.017124, 0.768165, 0.031803, 9.36476, 0.411987, -1.2207, -0.839233, 0, 0
5253, 0.00287109, 0.0456299, 0.0468603, -0.0191748, 0.631167, -0.413439, 9.69747, 0.198364, 0.747681, -2.83813, 0, 0
5263, 0.00123047, 0.0438867, 0.0480908, -0.0163037, 0.34494, -0.442796, 10.0131, -0.320435, 0.50354, -6.46973, 0, 0
5283, 0.00328125, 0.0448096, 0.0456299, -0.017124, 0.222621, 0.43301, 10.3213, -0.50354, -4.04358, -10.5133, 0, 0
5293, 0.000410156, 0.0442969, 0.0472705, -0.0191748, 0.440349, 0.450135, 10.1525, -0.778198, -7.23267, -10.4218, 0, 0
5303, 0, 0.0448096, 0.0448096, -0.0141504, 0.288673, -0.271549, 8.51586, -0.137329, -3.9978, -11.261, 0, 0
5313, 0.00164062, 0.0452197, 0.0434766, -0.0150732, 1.18405, 0.545544, 9.75618, 1.00708, 0.518799, -13.1989, 0, 0
5323, 0.000820312, 0.0448096, 0.0452197, -0.0150732, 0.464813, 0.501509, 9.83446, -1.20544, -0.62561, -14.2517, 0, 0
5333, 0.000820312, 0.0430664, 0.0468603, -0.0145605, 0.538204, 1.54367, 10.6662, 1.80054, -1.83105, -10.1471, 0, 0
5343, 0.000820312, 0.0430664, 0.0468603, -0.0137402, 0.347387, 0.530865, 10.4632, 3.32642, -6.42395, -5.93567, 0, 0
5353, 0.00246094, 0.04604, 0.0476807, -0.017124, 0.220175, 0.247085, 10.1329, 7.1106, -8.05664, -3.2196, 0, 0
5373, 0.00246094, 0.0434766, 0.0480908, -0.0183545, 0.721683, 0.802414, 10.2234, 9.32312, -11.5967, 1.19019, 0, 0
5383, 0.00246094, 0.0468603, 0.0480908, -0.0179443, 0.721683, 1.06418, 10.4485, -2.21252, -12.6801, -1.15967, 0, 0
5393, 0.00164062, 0.0468603, 0.0480908, -0.0163037, 0.37919, 0.472152, 10.539, -1.34277, -16.9067, 0.320435, 0, 0
5403, 0.00123047, 0.0448096, 0.0472705, -0.0183545, -0.0782843, 0.11498, 11.0919, 2.09045, -18.9056, -0.183105, 0, 0
5413, 0.00164062, 0.0438867, 0.0456299, -0.0167139, 0.00489277, -0.293566, 11.3512, -1.86157, -27.298, -4.71497, 0, 0
5423, 0.00205078, 0.04604, 0.0489111, -0.017124, 0.102748, -0.648292, 11.4368, -0.473022, -32.1198, -9.00269, 0, 0
5433, 0.00205078, 0.0464502, 0.048501, -0.017124, 0.880698, -0.513741, 12.6087, 1.23596, -42.4499, -12.0544, 0, 0
5453, 0.00287109, 0.0442969, 0.049834, -0.0191748, 2.11857, 0.582239, 11.635, 23.0713, -55.2521, -9.96399, 0, 0
5463, 0.00205078, 0.0476807, 0.048501, -0.0163037, 1.90084, 0.716791, 12.3885, 21.698, -65.155, -5.18799, 0, 0
5473, 0.00246094, 0.0468603, 0.049834, -0.0179443, 1.95466, 0.403653, 11.0259, 19.2108, -70.9839, -3.09753, 0, 0
5483, 0.00246094, 0.0452197, 0.0514746, -0.0179443, 1.91063, 0.736362, 10.95, 20.874, -76.3855, 0.411987, 0, 0
5493, 0.00328125, 0.0452197, 0.0514746, -0.019585, 1.93754, 0.846449, 11.6937, -3.96728, -82.428, 1.02234, 0, 0
5503, 0.00328125, 0.0448096, 0.0514746, -0.019585, 1.87638, 0.714344, 9.55558, -11.7187, -90.6982, 2.30408, 0, 0
5513, 0.00164062, 0.0442969, 0.0522949, -0.019585, 1.5241, 1.46538, 9.53111, 3.61633, -86.792, 7.56836, 0, 0
5523, 0.00164062, 0.0456299, 0.0514746, -0.0205078, 1.61951, 1.4189, 9.45772, -0.411987, -89.3707, 14.2822, 0, 0
5543, 0.00451172, 0.0430664, 0.0539355, -0.0200977, 1.07152, 1.09843, 9.63386, 1.90735, -82.2754, 17.6086, 0, 0
5553, 0.00451172, 0.0442969, 0.0539355, -0.0200977, 0.95409, 0.0269102, 8.71402, -2.83813, -83.0231, 15.2588, 0, 0
5563, 0.00246094, 0.0472705, 0.056499, -0.0191748, 1.38465, 0.198157, 9.62407, 1.43433, -77.8503, 11.8713, 0, 0
5573, 0.00164062, 0.0430664, 0.0544482, -0.0187646, 1.27701, -0.288673, 9.14458, -1.58691, -80.4443, 6.073, 0, 0
5583, 0.00502441, 0.04604, 0.0573193, -0.0187646, 1.81766, 0.0758379, 8.74827, -2.42615, -74.6918, -1.00708, 0, 0
5593, 0.00502441, 0.0442969, 0.0569092, -0.020918, 1.80543, 0.398761, 8.80943, -3.35693, -73.4253, -4.05884, 0, 0
5603, 0.00543457, 0.0442969, 0.0569092, -0.019585, 2.86227, 0.675202, 8.73848, -5.93567, -71.0449, -7.04956, 0, 0
5623, 0.00287109, 0.0452197, 0.0594727, -0.0191748, 2.79132, 0.733915, 9.7733, -5.23376, -73.1964, 0.0305176, 0, 0
5633, 0.00502441, 0.0438867, 0.0611133, -0.0187646, 3.2121, 1.19139, 8.8975, 0.0762939, -71.991, 1.41907, 0, 0
5643, 0.00502441, 0.0468603, 0.0598828, -0.0187646, 3.08734, 1.59749, 9.42103, -4.44031, -73.1812, 6.11877, 0, 0
5653, 0.00410156, 0.0468603, 0.0598828, -0.0191748, 3.25124, 0.357172, 8.33483, -2.48718, -72.6318, 8.13293, 0, 0
5663, 0.00328125, 0.0456299, 0.05896, -0.0187646, 3.41271, 1.04216, 9.47729, 2.33459, -70.0684, 9.59778, 0, 0
5673, 0.00287109, 0.04604, 0.0615234, -0.0213281, 3.60352, 0.582239, 9.10544, -0.991821, -73.2422, 11.3983, 0, 0
5683, 0.00246094, 0.0434766, 0.060293, -0.019585, 3.51301, 1.00546, 9.93477, 0.915527, -73.1812, 12.6801, 0, 0
5693, 0.00502441, 0.0426563, 0.0607031, -0.019585, 4.10014, 1.07152, 10.1745, 0.534058, -80.5359, 15.6555, 0, 0
5713, 0.00410156, 0.0442969, 0.0619336, -0.0205078, 4.04877, 1.03482, 10.1182, 3.28064, -93.2617, 20.9198, 0, 0
5723, 0.00287109, 0.0438867, 0.0611133, -0.0205078, 4.28851, 0.998125, 10.0131, 7.08008, -97.9767, 22.3694, 0, 0
5733, 0.00502441, 0.04604, 0.0611133, -0.0213281, 4.35456, 0.782843, 9.61429, 8.57544, -103.607, 23.0408, 0, 0
5743, 0.00584473, 0.0434766, 0.0639844, -0.0213281, 4.63345, 0.523526, 8.87059, 7.30896, -107.59, 24.1089, 0, 0
5753, 0.00584473, 0.0434766, 0.0631641, -0.0191748, 4.8365, 0.709451, 8.44003, 9.552, -110.001, 25.7874, 0, 0
5763, 0.00502441, 0.0434766, 0.0631641, -0.0229687, 5.20591, 0.489277, 7.84311, 11.4593, -110.489, 26.6724, 0, 0
5773, 0.00584473, 0.0448096, 0.0657275, -0.0233789, 5.29398, 0.327815, 7.81864, 12.1307, -109.619, 26.8249, 0, 0
5793, 0.00543457, 0.0406055, 0.0685986, -0.020918, 5.74411, -0.66297, 7.59358, 10.8337, -112.213, 23.8037, 0, 0
5803, 0.00543457, 0.0434766, 0.0681885, -0.0213281, 5.97896, -0.684988, 7.4786, 12.0087, -111.725, 18.9056, 0, 0
5813, 0.00748535, 0.0434766, 0.0681885, -0.0217383, 6.46579, 0.0146783, 7.39297, 14.5569, -111.511, 15.7166, 0, 0
5823, 0.00666504, 0.0401953, 0.0703418, -0.0213281, 6.71532, 0.77795, 7.51285, 18.1885, -114.655, 18.8293, 0, 0
5833, 0.00789551, 0.0430664, 0.070752, -0.0213281, 6.54408, 0.357172, 7.17769, 21.4386, -119.904, 24.3988, 0, 0
5843, 0.00625488, 0.0426563, 0.0685986, -0.0221484, 6.55142, -0.237299, 6.50983, 23.5291, -123.215, 25.4059, 0, 0
5853, 0.00625488, 0.0430664, 0.0715723, -0.0221484, 6.43644, -0.364511, 6.24562, 21.1792, -121.704, 22.9034, 0, 0
5863, 0.00789551, 0.0430664, 0.0715723, -0.0205078, 6.34347, -0.653185, 5.91536, 15.4266, -115.372, 16.5405, 0, 0
5883, 0.00830566, 0.0418359, 0.0723926, -0.0229687, 7.04803, -0.315584, 6.17712, 8.23975, -108.337, 1.58691, 0, 0
5893, 0.00912598, 0.0434766, 0.0711621, -0.0233789, 6.89146, -0.369404, 5.9178, 6.60706, -105.011, -4.89807, 0, 0
5903, 0.010459, 0.0422461, 0.0741357, -0.0233789, 7.31714, -0.386529, 5.49703, 7.75146, -101.166, -9.01794, 0, 0
5913, 0.010459, 0.0422461, 0.0741357, -0.0229687, 7.3734, -0.352279, 4.95637, 8.60596, -93.5211, -11.6425, 0, 0
5923, 0.0129199, 0.0410156, 0.0728027, -0.020918, 7.89204, 0.342494, 4.64079, 12.207, -89.7064, -12.0544, 0, 0
5933, 0.0112793, 0.0414258, 0.0723926, -0.0255322, 7.95809, 0.305798, 4.95393, 10.0861, -84.5489, -9.85718, 0, 0
5943, 0.00953613, 0.0414258, 0.0749561, -0.020918, 7.88225, 0.0489277, 5.23526, 8.255, -83.2825, -9.01794, 0, 0
5963, 0.0116895, 0.0397852, 0.0745459, -0.0229687, 9.8785, 1.15469, 6.54163, -10.2539, -74.3866, -16.7084, 0, 0
5973, 0.0137402, 0.0430664, 0.0745459, -0.0217383, 6.37772, -1.60727, 6.51961, -35.4004, -51.5442, -30.3802, 0, 0
5983, 0.0120996, 0.0410156, 0.0749561, -0.0221484, 7.85779, 0.276441, 4.29096, -21.9727, -61.6455, -32.4402, 0, 0
5993, 0.0133301, 0.0422461, 0.0757764, -0.0213281, 8.4914, 1.33573, 3.7234, -20.0195, -61.5997, -27.4353, 0, 0
6003, 0.0125098, 0.0388623, 0.0757764, -0.0213281, 8.67488, 1.26967, 3.93868, -21.6675, -60.2722, -19.3176, 0, 0
6013, 0.0125098, 0.0430664, 0.0745459, -0.0229687, 8.91218, 0.753486, 4.46465, -21.6064, -61.0809, -12.2833, 0, 0
6023, 0.0137402, 0.0430664, 0.0745459, -0.0217383, 9.13235, 0.910055, 5.02487, -19.6686, -65.2924, -6.39343, 0, 0
6033, 0.0108691, 0.0414258, 0.0745459, -0.0221484, 9.33785, 0.912501, 5.25239, -20.0043, -71.1212, -0.579834, 0, 0
6053, 0.0120996, 0.0422461, 0.0741357, -0.0233789, 9.36476, 0.0562668, 5.17655, -21.225, -81.9397, 0.717163, 0, 0
6063, 0.0120996, 0.0418359, 0.0770068, -0.0217383, 9.40145, 0.185925, 4.84384, -19.2719, -87.4481, -0.839233, 0, 0
6073, 0.0120996, 0.0418359, 0.0770068, -0.0205078, 9.27669, 0.403653, 4.37169, -17.7917, -90.4846, -1.43433, 0, 0
6083, 0.0154834, 0.0410156, 0.0745459, -0.0205078, 9.11767, 0.670309, 4.25915, -17.1661, -91.9342, -0.518799, 0, 0
6093, 0.0145605, 0.0401953, 0.0745459, -0.0213281, 9.08342, 0.897823, 4.32765, -15.9149, -93.338, 1.26648, 0, 0
6103, 0.0129199, 0.0418359, 0.0761865, -0.0217383, 9.15437, 1.19139, 4.50624, -14.2212, -95.2911, 4.73022, 0, 0
6113, 0.0125098, 0.0426563, 0.0757764, -0.0217383, 9.2351, 0.961429, 4.45487, -10.8337, -97.702, 7.58362, 0, 0
6123, 0.0125098, 0.0426563, 0.0757764, -0.020918, 9.31339, 0.687434, 4.28851, -6.08826, -99.8382, 8.22449, 0, 0
6143, 0.0141504, 0.0426563, 0.0732129, -0.0233789, 8.9342, 0.826878, 3.82614, 2.16675, -100.693, 6.88171, 0, 0
6153, 0.0129199, 0.0410156, 0.0749561, -0.0225586, 8.66754, 0.993232, 3.60597, 3.5553, -99.8535, 7.21741, 0, 0
6163, 0.0141504, 0.0426563, 0.0715723, -0.0225586, 8.27122, 0.91984, 3.30262, 3.52478, -97.9309, 7.40051, 0, 0
6173, 0.0141504, 0.0426563, 0.0723926, -0.020918, 8.06328, 0.895377, 2.96746, 2.56348, -94.696, 7.24792, 0, 0
6183, 0.0125098, 0.0406055, 0.0723926, -0.0229687, 7.90182, 0.327815, 2.97236, 2.41089, -91.0644, 5.4779, 0, 0
6193, 0.0137402, 0.0434766, 0.0723926, -0.0225586, 7.89204, 0.193264, 3.20721, 3.90625, -88.5315, 1.41907, 0, 0
6203, 0.0150732, 0.0426563, 0.0732129, -0.0200977, 8.04371, 0.540651, 3.40781, 5.18799, -87.1429, -1.7395, 0, 0
6223, 0.0137402, 0.0401953, 0.0723926, -0.0233789, 8.75072, 1.29414, 3.25858, 5.50842, -84.0607, 0.366211, 0, 0
6233, 0.0179443, 0.0401953, 0.0723926, -0.020918, 8.72625, 0.604257, 3.08978, 6.5155, -81.5735, 3.50952, 0, 0
6243, 0.0137402, 0.0414258, 0.0728027, -0.0200977, 8.6602, 0.00978554, 2.57604, 9.06372, -78.0029, 2.91443, 0, 0
6253, 0.0154834, 0.0401953, 0.0732129, -0.0225586, 8.74093, 0.185925, 2.06719, 9.90295, -71.701, 0.396728, 0, 0
6263, 0.0116895, 0.0397852, 0.073623, -0.0225586, 8.88037, 0.418332, 2.05007, 7.5531, -63.8275, -1.72424, 0, 0
6273, 0.0116895, 0.0406055, 0.0749561, -0.0225586, 9.10789, 0.5749, 2.33874, 5.0354, -57.0984, -3.67737, 0, 0
6283, 0.0129199, 0.0406055, 0.0749561, -0.0213281, 9.29137, 0.944304, 2.44638, 4.3335, -51.8646, -3.95203, 0, 0
6293, 0.0133301, 0.0397852, 0.070752, -0.0200977, 9.38922, 1.12044, 2.18707, 5.26428, -46.7834, -2.27356, 0, 0
6313, 0.0150732, 0.0397852, 0.0728027, -0.0187646, 9.44549, 0.831771, 1.88616, 10.788, -35.3851, 0.900268, 0, 0
6323, 0.0129199, 0.0418359, 0.0715723, -0.0187646, 9.48219, 0.773057, 2.11368, 14.0381, -30.7159, 1.7395, 0, 0
6333, 0.0129199, 0.0418359, 0.0715723, -0.0247119, 9.38922, 0.653185, 2.57849, 16.2048, -28.0762, 1.7395, 0, 0
6343, 0.0133301, 0.0388623, 0.0719824, -0.0213281, 9.34274, 0.633614, 2.7424, 17.334, -27.5421, 1.57166, 0, 0
6353, 0.0163037, 0.0406055, 0.0711621, -0.020918, 10.676, 1.66599, 4.45731, 16.1133, -27.5574, 1.83105, 0, 0
6363, 0.0167139, 0.0388623, 0.0719824, -0.0213281, 13.9982, -0.95409, 8.57213, -34.9579, -8.81958, 19.2719, 0, 0
6373, 0.017124, 0.0406055, 0.0711621, -0.0213281, 8.22474, -2.47819, 0.484384, -10.849, -17.0746, -1.80054, 0, 0
6393, 0.0141504, 0.0426563, 0.0723926, -0.0217383, 9.00269, 1.53388, 1.08619, 0, -0.0915527, 4.79126, 0, 0
6403, 0.0154834, 0.0397852, 0.0711621, -0.0205078, 10.8766, 2.099, 3.18764, 6.95801, -1.297, 10.9558, 0, 0
6413, 0.0145605, 0.0418359, 0.0715723, -0.0205078, 8.49385, 0.420778, 1.66599, 8.75854, 4.05884, 14.2364, 0, 0
6423, 0.0125098, 0.0414258, 0.070752, -0.0205078, 10.2503, 1.44092, 3.0433, 17.2729, -3.20435, 16.9067, 0, 0
6433, 0.0125098, 0.0414258, 0.0715723, -0.0225586, 9.46751, 0.961429, 2.12835, 21.1945, -5.75256, 21.7285, 0, 0
6443, 0.0154834, 0.0414258, 0.0715723, -0.0205078, 9.00025, 0.748594, 2.19196, 24.8566, -11.2, 24.8413, 0, 0
6453, 0.0141504, 0.0406055, 0.0719824, -0.0213281, 11.5959, -0.660524, 4.80714, 24.7498, -17.1661, 26.6266, 0, 0
6463, 0.0129199, 0.0406055, 0.0695215, -0.0221484, 9.81245, 0.105195, 2.28737, 17.4713, -37.7808, 17.4713, 0, 0
6483, 0.0163037, 0.0392725, 0.073623, -0.0241992, 10.3531, -0.939412, 3.0115, 6.46973, -36.6211, 14.0381, 0, 0
6493, 0.0163037, 0.0392725, 0.073623, -0.0205078, 8.67732, 0.264209, 1.7247, 2.38037, -37.3993, 9.58252, 0, 0
6503, 0.0158936, 0.0410156, 0.0732129, -0.0191748, 9.66077, -0.917394, 2.45617, 0.808716, -41.4734, 5.37109, 0, 0
6513, 0.0145605, 0.0392725, 0.0703418, -0.0217383, 9.2669, -0.821985, 2.09655, -3.9978, -39.3829, 1.43433, 0, 0
6523, 0.0150732, 0.0410156, 0.0732129, -0.0205078, 9.54579, -1.05684, 2.0941, -7.0343, -43.8385, -5.5542, 0, 0
6533, 0.0141504, 0.0406055, 0.070752, -0.0205078, 9.21308, -1.48985, 1.42135, -14.5264, -42.2058, -11.4593, 0, 0
6543, 0.0141504, 0.0406055, 0.070752, -0.0241992, 9.86137, -1.67333, 1.4238, -21.8658, -41.7175, -19.3939, 0, 0
6563, 0.0154834, 0.0410156, 0.0691113, -0.0233789, 11.1408, 4.59676, 1.10087, -26.8402, -57.0831, -18.4631, 0, 0
6573, 0.017124, 0.0388623, 0.0699316, -0.0183545, 9.15437, 3.92155, -1.34062, -24.7192, -52.2003, -0.823975, 0, 0
6583, 0.0150732, 0.0422461, 0.0699316, -0.0183545, 10.8008, -0.43301, 0.0807307, -21.286, -44.8456, 10.498, 0, 0
6593, 0.0150732, 0.0422461, 0.0703418, -0.0213281, 12.2564, -3.91666, 2.42192, -7.78198, -46.7377, -0.640869, 0, 0
6603, 0.0150732, 0.0392725, 0.0703418, -0.0217383, 7.92139, 2.28737, -0.758379, -13.6566, -34.8663, -5.90515, 0, 0
6613, 0.0175342, 0.0397852, 0.0703418, -0.0213281, 11.7206, 1.30148, 1.11555, -1.40381, -47.7142, 4.13513, 0, 0
6623, 0.0167139, 0.0401953, 0.0681885, -0.020918, 7.95809, -1.70268, -0.472152, -5.46265, -40.5426, -0.701904, 0, 0
6633, 0.0167139, 0.0388623, 0.0673682, -0.020918, 9.87361, 0.352279, 0.410993, -3.41797, -43.7927, 0.167847, 0, 0
6653, 0.0167139, 0.038042, 0.0703418, -0.0221484, 10.5537, -0.435456, 1.31126, -0.991821, -48.0804, 0.823975, 0, 0
6663, 0.0179443, 0.0401953, 0.066958, -0.0217383, 9.0981, 0.369404, 0.161461, -3.95203, -48.3551, -1.35803, 0, 0
6673, 0.0163037, 0.0414258, 0.066958, -0.020918, 9.75863, -0.479491, 0.658077, -0.900268, -52.475, 2.16675, 0, 0
6683, 0.0191748, 0.0418359, 0.0657275, -0.0200977, 10.0595, 0.939412, -0.0342494, 2.01416, -62.8815, 0.274658, 0, 0
6733, 0.0179443, 0.0401953, 0.0665478, -0.0241992, 16.063, -0.37919, -4.16375, 1.92261, -59.0973, 3.75366, 0, 0
6753, 0.0163037, 0.0401953, 0.0653174, -0.0205078, 8.54277, -1.58526, 3.30996, -5.06592, 6.5155, -2.12097, 0, 0
6763, 0.0179443, 0.0401953, 0.0653174, -0.0213281, 15.7939, -0.587132, -8.83389, -4.91333, 3.70789, -0.320435, 0, 0
6773, 0.0191748, 0.0418359, 0.0649072, -0.0205078, 5.99609, 0.455027, 4.29096, 0.686645, -2.44141, -2.13623, 0, 0
6783, 0.0187646, 0.0406055, 0.0649072, -0.0213281, 12.386, 1.59994, -3.0751, -1.7395, 1.7395, 1.17493, 0, 0
6793, 0.0175342, 0.0388623, 0.0649072, -0.0213281, 7.48594, -0.0538205, -0.946751, -0.488281, 0.534058, 4.01306, 0, 0
6803, 0.0175342, 0.0388623, 0.0665478, -0.0217383, 11.4515, -0.841556, 0.171247, 0.747681, -2.28882, 0.854492, 0, 0
6813, 0.0167139, 0.0430664, 0.0665478, -0.0205078, 8.76539, 0.222621, -0.765718, 0.808716, -0.152588, -1.93787, 0, 0
6823, 0.0200977, 0.0414258, 0.0673682, -0.0205078, 11.0405, -0.0415885, 1.43113, -0.411987, 0.976562, -4.04358, 0, 0
6843, 0.0191748, 0.0414258, 0.0649072, -0.0233789, 10.6711, 0.941858, 0.34494, -0.823975, 0.12207, 2.65503, 0, 0
6853, 0.0191748, 0.0414258, 0.0639844, -0.0200977, 10.128, -1.34306, -1.28924, 0.289917, 1.61743, 0.152588, 0, 0
6863, 0.0200977, 0.0414258, 0.0639844, -0.0221484, 10.084, 0.963875, -1.34306, 0.50354, -0.762939, -3.28064, 0, 0
6873, 0.0187646, 0.0410156, 0.0653174, -0.0221484, 9.93966, 0.726576, -2.12591, 1.02234, 0.549316, 2.15149, 0, 0
6883, 0.0183545, 0.0434766, 0.0665478, -0.0225586, 9.1984, -0.888037, -0.934519, 0.579834, 0.228882, 0.976562, 0, 0
6893, 0.0183545, 0.0397852, 0.0649072, -0.0225586, 10.8301, -0.151676, -0.672756, 0.0305176, -0.610352, -1.64795, 0, 0
6903, 0.0183545, 0.0397852, 0.0653174, -0.020918, 9.17394, 0.721683, 0.565115, 0.0610352, -0.289917, -0.0152588, 0, 0
6923, 0.020918, 0.0410156, 0.0635742, -0.020918, 10.5488, 0.415885, 1.46294, 0.12207, -0.747681, -1.52588, 0, 0
6933, 0.0179443, 0.0401953, 0.0653174, -0.0213281, 9.39656, 0.831771, -1.80054, -1.83105, 1.26648, -0.640869, 0, 0
6943, 0.0205078, 0.0401953, 0.0644971, -0.0217383, 10.3873, 0.450135, -0.325369, -0.213623, 1.05286, 0.88501, 0, 0
6953, 0.0183545, 0.0414258, 0.0665478, -0.0217383, 10.7714, 0.198157, -1.29658, 0.793457, -0.396728, -1.0376, 0, 0
6963, 0.0183545, 0.0414258, 0.0665478, -0.0233789, 9.64854, 0.834217, -1.50208, 1.09863, 0.427246, 0.701904, 0, 0
6973, 0.0200977, 0.0406055, 0.0665478, -0.0217383, 10.1672, -0.0978554, -0.633614, 1.17493, -0.137329, 1.23596, 0, 0
6983, 0.0183545, 0.0426563, 0.0681885, -0.0191748, 10.5855, -0.222621, -0.932072, 0.518799, 0.320435, -0.534058, 0, 0
6993, 0.0205078, 0.0418359, 0.0644971, -0.0200977, 9.58738, 0.0929626, -0.0220175, -0.488281, -0.335693, 0.396728, 0, 0
7013, 0.0205078, 0.0410156, 0.066958, -0.0213281, 10.084, 0.0244638, -0.423224, -1.32751, -0.564575, -0.656128, 0, 0
7023, 0.0191748, 0.0414258, 0.066958, -0.0217383, 10.199, 0.68988, -1.03727, -1.05286, -0.0610352, 0.823975, 0, 0
7033, 0.0191748, 0.0422461, 0.0649072, -0.0217383, 10.0864, 0.159015, -0.49417, -0.0762939, 0.350952, 0.183105, 0, 0
7043, 0.0200977, 0.0430664, 0.0657275, -0.0251221, 10.4338, 0.72413, -1.46783, 0.747681, -0.38147, -0.473022, 0, 0
7053, 0.0183545, 0.0422461, 0.0657275, -0.0251221, 10.0522, 0.824431, -0.428117, 1.38855, 0.183105, 0.961304, 0, 0
7063, 0.0183545, 0.0422461, 0.066958, -0.0237891, 10.3433, -0.0611596, -1.1498, 1.32751, 0.442505, 0.747681, 0, 0
7073, 0.0200977, 0.0438867, 0.066958, -0.0247119, 10.3458, -0.0733915, -0.110087, 0.88501, 0.0610352, -0.320435, 0, 0
7093, 0.0183545, 0.0414258, 0.0661377, -0.027583, 10.1158, -0.335155, -0.193264, -1.02234, 0.335693, 0.396728, 0, 0
7103, 0.0191748, 0.0426563, 0.0657275, -0.027583, 10.4558, -0.391421, -0.501509, -1.54114, -0.335693, -0.839233, 0, 0
7113, 0.0183545, 0.0426563, 0.0649072, -0.0237891, 9.83936, 0.540651, -0.912501, -1.31226, -0.0610352, -0.915527, 0, 0
7123, 0.0183545, 0.0426563, 0.0649072, -0.0267627, 10.1623, 0.437903, -1.10577, -0.747681, 0.0152588, 0.396728, 0, 0
7133, 0.0191748, 0.0438867, 0.0673682, -0.0241992, 10.5097, 0.362065, -0.743701, 0.396728, 0.12207, -0.0915527, 0, 0
7143, 0.0187646, 0.0426563, 0.0665478, -0.0237891, 9.75373, 0.868466, -0.888037, 1.20544, -0.0152588, -0.12207, 0, 0
7153, 0.0167139, 0.0422461, 0.0639844, -0.0255322, 10.3042, 0.640953, -0.48683, 1.297, 0.488281, 0.854492, 0, 0
7163, 0.0187646, 0.0438867, 0.0653174, -0.0255322, 10.3702, 0.107641, -0.139444, 0.930786, -0.0152588, 0.198364, 0, 0
7183, 0.019585, 0.0430664, 0.0665478, -0.0247119, 10.2063, -0.0220175, -0.251978, -0.549316, 0.0305176, 0.595093, 0, 0
7193, 0.0200977, 0.0422461, 0.0649072, -0.0241992, 10.4803, -0.0391421, -0.733915, -1.14441, -0.518799, 0.961304, 0, 0
7203, 0.0205078, 0.0464502, 0.0685986, -0.0255322, 10.1378, 0.163908, -0.880698, -1.08337, -0.62561, 1.77002, 0, 0
7213, 0.0200977, 0.0438867, 0.0673682, -0.0255322, 10.0155, 0.376743, -1.25989, -0.595093, -0.305176, 2.89917, 0, 0
7223, 0.0200977, 0.0438867, 0.0644971, -0.0255322, 10.517, 0.0440349, -0.589579, 0.167847, -0.915527, 2.48718, 0, 0
7233, 0.019585, 0.0452197, 0.0644971, -0.0263525, 9.48708, 0.205496, -0.780397, 0.671387, -0.320435, 1.8158, 0, 0
7243, 0.020918, 0.0448096, 0.0661377, -0.0233789, 10.4632, -0.193264, -0.596918, 0.854492, 0.427246, -0.152588, 0, 0
7253, 0.019585, 0.0448096, 0.0665478, -0.0255322, 10.0522, -0.239746, -0.342494, 0.717163, 0.701904, -2.79236, 0, 0
7273, 0.019585, 0.0452197, 0.066958, -0.0233789, 10.6956, 1.33083, 0.440349, -0.137329, -0.350952, 2.71606, 0, 0
7283, 0.0200977, 0.0422461, 0.066958, -0.0241992, 10.3776, 1.61951, -1.64642, -0.900268, 0.183105, 2.82288, 0, 0
7293, 0.019585, 0.0422461, 0.0661377, -0.0237891, 10.2308, -1.07396, -0.225067, -0.778198, -0.549316, 0.0610352, 0, 0
7303, 0.0205078, 0.0410156, 0.066958, -0.0237891, 9.75373, -0.105195, -2.00604, -0.366211, -0.411987, -1.297, 0, 0
7313, 0.0183545, 0.0452197, 0.0649072, -0.0237891, 10.3678, -0.313137, -0.264209, 0.137329, 0.762939, -2.21252, 0, 0
7323, 0.0167139, 0.0452197, 0.066958, -0.0247119, 9.80511, 0.5749, -0.780397, 0.38147, -0.564575, 0.473022, 0, 0
7333, 0.0167139, 0.0426563, 0.066958, -0.0237891, 10.402, 1.118, -0.0807307, 0.473022, 0.793457, 0.991821, 0, 0
7353, 0.0187646, 0.0438867, 0.0639844, -0.0217383, 9.97391, 0.136998, -0.156569, 0.0152588, 0.732422, -0.808716, 0, 0
7363, 0.0158936, 0.0426563, 0.066958, -0.0217383, 10.2479, 0.75104, -0.897823, -0.274658, -0.411987, 0.854492, 0, 0
7373, 0.0183545, 0.0430664, 0.066958, -0.0217383, 10.5757, 0.359618, -0.63606, -0.335693, 0.518799, -0.442505, 0, 0
7383, 0.0183545, 0.0430664, 0.066958, -0.0221484, 9.60695, -0.474599, -1.49229, -0.198364, -0.137329, -0.335693, 0, 0
7393, 0.0179443, 0.0438867, 0.0661377, -0.020918, 10.4656, 0.604257, -0.89293, 0.0305176, 0.0762939, 0.701904, 0, 0
7403, 0.017124, 0.04604, 0.066958, -0.0191748, 10.1305, -0.188372, -0.917394, 0.213623, 0.183105, -0.320435, 0, 0
7413, 0.0175342, 0.0452197, 0.0665478, -0.020918, 9.9152, -0.151676, -0.538204, 0.0762939, -0.183105, -0.350952, 0, 0
7423, 0.0187646, 0.0448096, 0.0665478, -0.020918, 10.3091, 0.604257, 0.139444, 0.12207, -0.0915527, 0.595093, 0, 0
7443, 0.017124, 0.0442969, 0.0695215, -0.0213281, 9.90296, 0.207943, -0.369404, -0.289917, -0.0152588, -0.106812, 0, 0
7453, 0.0141504, 0.0434766, 0.0657275, -0.019585, 10.5097, 0.934519, -0.467259, -0.274658, -0.0152588, 0.457764, 0, 0
7463, 0.0163037, 0.0468603, 0.0649072, -0.0200977, 10.1329, 0.161461, -1.0813, -0.0915527, 0.289917, -0.320435, 0, 0
7473, 0.019585, 0.04604, 0.0653174, -0.0200977, 10.0277, 0.220175, -1.06662, 0.274658, 0.411987, 0.152588, 0, 0
7483, 0.0200977, 0.04604, 0.0657275, -0.0213281, 10.4558, 0.408546, -0.985893, 0.534058, 0.411987, 0.686645, 0, 0
7493, 0.0200977, 0.048501, 0.0657275, -0.0200977, 10.1036, -0.322923, -0.802414, 0.411987, 0.0152588, -0.488281, 0, 0
7503, 0.0167139, 0.0438867, 0.0657275, -0.0200977, 9.99103, -0.095409, -0.259317, 0.274658, -0.0152588, 0, 0, 0
7523, 0.0163037, 0.0476807, 0.066958, -0.0163037, 10.1574, -0.0269102, -0.300905, -0.656128, -0.228882, -0.595093, 0, 0
7533, 0.0179443, 0.0476807, 0.0681885, -0.0191748, 9.947, 0.359618, -0.288673, -0.671387, 0.12207, 0, 0, 0
7543, 0.0179443, 0.0452197, 0.0681885, -0.0163037, 10.3286, 0.780397, -0.858681, -0.473022, -0.228882, 0.366211, 0, 0
7553, 0.0175342, 0.0472705, 0.0665478, -0.017124, 10.1256, 0.303352, -0.956536, -0.0457764, 0.106812, -0.38147, 0, 0
7563, 0.0179443, 0.0456299, 0.0661377, -0.0187646, 10.1085, 0.545544, -0.998125, 0.564575, 0.167847, 0.38147, 0, 0
7573, 0.0179443, 0.0456299, 0.0661377, -0.0213281, 10.2626, 0.410993, -0.998125, 0.793457, 0.0152588, 0.564575, 0, 0
7583, 0.0187646, 0.0464502, 0.066958, -0.0213281, 10.199, -0.0929626, -0.49417, 0.732422, 0.137329, -0.335693, 0, 0
7593, 0.0187646, 0.0464502, 0.066958, -0.0200977, 10.0155, -0.122319, -0.342494, 0.396728, 0.0457764, 0.137329, 0, 0
7613, 0.0175342, 0.0434766, 0.0673682, -0.0175342, 10.1427, -0.193264, -0.168801, -0.793457, -0.198364, -0.62561, 0, 0
7623, 0.0205078, 0.0452197, 0.0661377, -0.0183545, 10.0204, 0.215282, -0.584686, -0.869751, -0.0305176, 0.0610352, 0, 0
7633, 0.0187646, 0.0476807, 0.0644971, -0.0183545, 10.3335, 0.543097, -0.863574, -0.732422, -0.0762939, 0.0915527, 0, 0
7643, 0.0187646, 0.0476807, 0.0657275, -0.0191748, 10.15, 0.393868, -0.912501, -0.137329, 0.0915527, -0.289917, 0, 0
7653, 0.017124, 0.0468603, 0.0657275, -0.019585, 9.97391, 0.640953, -1.05439, 0.38147, 0.137329, 0.50354, 0, 0
7663, 0.0183545, 0.0448096, 0.0665478, -0.0191748, 10.314, 0.560222, -0.787736, 0.808716, 0.0762939, 0.274658, 0, 0
7673, 0.017124, 0.0448096, 0.0653174, -0.020918, 10.1182, 0.0782843, -0.489277, 0.839233, 0.0915527, -0.12207, 0, 0
7693, 0.0175342, 0.0468603, 0.0635742, -0.020918, 10.3629, -0.0342494, -0.227514, -0.640869, -0.0915527, -0.0457764, 0, 0
7703, 0.0175342, 0.0464502, 0.0635742, -0.0191748, 10.0913, -0.308244, -0.354726, -0.823975, -0.0762939, -0.473022, 0, 0
7713, 0.0158936, 0.0480908, 0.0673682, -0.0179443, 10.0742, 0.112534, -0.726576, -0.793457, -0.0305176, 0.12207, 0, 0
7723, 0.0175342, 0.0468603, 0.0661377, -0.020918, 10.3702, 0.266656, -0.807307, -0.213623, -0.0915527, -0.228882, 0, 0
7733, 0.0167139, 0.0456299, 0.0661377, -0.020918, 10.1109, 0.244638, -0.988339, 0.228882, -0.0762939, -0.305176, 0, 0
7743, 0.0141504, 0.0456299, 0.0681885, -0.019585, 10.04, 0.645845, -0.934519, 0.671387, 0.183105, 0.396728, 0, 0
7753, 0.0141504, 0.0456299, 0.0681885, -0.020918, 10.3751, 0.589579, -0.604257, 0.671387, -0.0152588, 0.0152588, 0, 0
7763, 0.017124, 0.0468603, 0.0635742, -0.0205078, 10.04, 0.283781, -0.440349, 0.411987, 0.0305176, -0.0610352, 0, 0
7783, 0.017124, 0.0468603, 0.0639844, -0.020918, 10.3311, 0.0587132, -0.269102, -0.38147, -0.167847, -0.0305176, 0, 0
7793, 0.0187646, 0.0468603, 0.0665478, -0.0191748, 10.0449, -0.163908, -0.562668, -0.488281, -0.0152588, -0.152588, 0, 0
7803, 0.0187646, 0.048501, 0.0665478, -0.0205078, 10.1158, 0.0587132, -0.765718, -0.549316, 0.0305176, 0.244141, 0, 0
7813, 0.0191748, 0.0456299, 0.0661377, -0.0179443, 10.3604, -0.0342494, -0.941858, -0.137329, -0.12207, -0.198364, 0, 0
7823, 0.0167139, 0.0468603, 0.0673682, -0.020918, 10.0522, 0.0513741, -0.993232, 0.228882, 0, -0.152588, 0, 0
7833, 0.0175342, 0.0464502, 0.066958, -0.020918, 10.1354, 0.464813, -0.836663, 0.366211, 0, 0.183105, 0, 0
7843, 0.0163037, 0.0468603, 0.0649072, -0.020918, 10.3091, 0.401207, -0.528419, 0.305176, -0.0915527, -0.167847, 0, 0
7863, 0.0183545, 0.0456299, 0.066958, -0.020918, 10.1158, 0.589579, -0.352279, -0.0762939, -0.0305176, 0.244141, 0, 0
7873, 0.0163037, 0.0468603, 0.0649072, -0.0183545, 10.3164, 0.278888, -0.352279, -0.244141, -0.0915527, -0.0610352, 0, 0
7883, 0.019585, 0.0464502, 0.0677783, -0.0217383, 10.0571, 0.129658, -0.594471, -0.259399, 0.0152588, -0.0152588, 0, 0
7893, 0.0175342, 0.0468603, 0.0631641, -0.0217383, 10.1598, 0.183479, -0.821985, -0.0457764, 0.137329, 0.198364, 0, 0
7903, 0.0150732, 0.0468603, 0.0649072, -0.0200977, 10.336, -0.0831771, -0.922287, 0.183105, -0.167847, -0.167847, 0, 0
7913, 0.0150732, 0.0472705, 0.0649072, -0.019585, 10.0644, -0.0660524, -0.922287, 0.244141, 0.0915527, -0.0457764, 0, 0
7923, 0.0167139, 0.0468603, 0.0653174, -0.0205078, 10.1647, 0.183479, -0.479491, 0.244141, 0.0152588, 0.106812, 0, 0
7933, 0.0187646, 0.0442969, 0.0657275, -0.0229687, 10.2773, 0.134551, -0.330262, 0.0152588, -0.0305176, -0.259399, 0, 0
7953, 0.0150732, 0.0456299, 0.0661377, -0.0191748, 10.106, 0.555329, -0.43301, -0.457764, -0.137329, 0.106812, 0, 0
7963, 0.0150732, 0.04604, 0.0661377, -0.0191748, 10.2968, 0.413439, -0.640953, -0.350952, -0.137329, 0, 0, 0
7973, 0.0150732, 0.0452197, 0.0657275, -0.0183545, 10.0179, 0.403653, -0.914948, -0.137329, 0.12207, 0.137329, 0, 0
7983, 0.0158936, 0.0468603, 0.0635742, -0.0187646, 10.1892, 0.37919, -0.902716, 0.244141, 0.0457764, 0.259399, 0, 0
7993, 0.0187646, 0.0480908, 0.0677783, -0.0187646, 10.3115, 0.0782843, -0.883145, 0.488281, -0.0152588, 0, 0, 0
8003, 0.0163037, 0.0480908, 0.0639844, -0.0183545, 10.062, -0.0244638, -0.665416, 0.442505, 0.0762939, 0.0610352, 0, 0
8013, 0.0163037, 0.0456299, 0.0639844, -0.0200977, 10.1916, 0.0366958, -0.43301, 0.289917, -0.0152588, 0.137329, 0, 0
8033, 0.0175342, 0.0452197, 0.0665478, -0.0187646, 10.0228, 0.105195, -0.359618, -0.50354, -0.0305176, -0.137329, 0, 0
8043, 0.0154834, 0.0464502, 0.0649072, -0.020918, 10.1843, 0.381636, -0.479491, -0.732422, -0.0305176, -0.0305176, 0, 0
8053, 0.0175342, 0.0472705, 0.066958, -0.020918, 10.2455, 0.391421, -0.790182, -0.473022, -0.0915527, -0.213623, 0, 0
8063, 0.0175342, 0.0472705, 0.0635742, -0.019585, 10.0497, 0.518633, -0.89293, -0.244141, 0.0915527, 0.0762939, 0, 0
8073, 0.0183545, 0.0438867, 0.0635742, -0.019585, 10.1623, 0.528419, -0.91984, 0.274658, 0.0305176, 0.274658, 0, 0
8083, 0.0183545, 0.04604, 0.0673682, -0.020918, 10.2724, 0.298459, -0.797521, 0.717163, 0.0457764, 0.0915527, 0, 0
8093, 0.0187646, 0.04604, 0.0661377, -0.0191748, 10.0204, 0.144337, -0.528419, 0.747681, 0.0457764, 0.198364, 0, 0
8103, 0.0179443, 0.0464502, 0.066958, -0.0191748, 10.2014, 0.0538205, -0.413439, 0.442505, 0.0457764, 0.198364, 0, 0
8123, 0.0158936, 0.0452197, 0.0665478, -0.0183545, 9.99593, 0.193264, -0.523526, -0.595093, -0.0305176, -0.0457764, 0, 0
8133, 0.0163037, 0.0464502, 0.0677783, -0.0205078, 10.2552, 0.205496, -0.533312, -0.854492, -0.0762939, -0.106812, 0, 0
8143, 0.0158936, 0.049834, 0.066958, -0.0205078, 10.2039, 0.501509, -0.912501, -0.701904, -0.198364, -0.320435, 0, 0
8153, 0.0205078, 0.0476807, 0.0653174, -0.0205078, 10.0718, 0.592025, -0.883145, -0.350952, 0.0610352, 0.0915527, 0, 0
8163, 0.0187646, 0.0476807, 0.066958, -0.0213281, 10.1819, 0.391421, -0.917394, 0.244141, -0.0762939, 0.137329, 0, 0
8173, 0.0187646, 0.0456299, 0.066958, -0.0183545, 10.2675, 0.37185, -0.658077, 0.610352, 0, 0, 0, 0
8183, 0.0175342, 0.0464502, 0.066958, -0.019585, 10.0082, 0.198157, -0.518633, 0.747681, 0.152588, 0.350952, 0, 0
8203, 0.017124, 0.0468603, 0.0673682, -0.0191748, 10.2014, -0.0293566, -0.388975, 0.0762939, -0.0610352, -0.12207, 0, 0
8213, 0.0167139, 0.0468603, 0.066958, -0.0221484, 10.0522, 0.00489277, -0.499062, -0.488281, 0.0152588, 0.0762939, 0, 0
8223, 0.0167139, 0.0472705, 0.066958, -0.019585, 10.2577, 0.0171247, -0.714344, -0.701904, -0.183105, -0.198364, 0, 0
8233, 0.017124, 0.0468603, 0.066958, -0.0213281, 10.1941, 0.37185, -0.985893, -0.595093, -0.12207, -0.198364, 0, 0
8243, 0.0163037, 0.0464502, 0.0673682, -0.0205078, 10.0864, 0.401207, -0.941858, -0.442505, 0.0610352, 0.0915527, 0, 0
8253, 0.0167139, 0.0468603, 0.0639844, -0.0183545, 10.243, 0.420778, -0.853788, 0.0610352, -0.0152588, -0.0152588, 0, 0
8263, 0.0183545, 0.0452197, 0.0665478, -0.0183545, 10.1916, 0.506402, -0.626274, 0.335693, 0.106812, 0.12207, 0, 0
8273, 0.0183545, 0.0452197, 0.0649072, -0.0213281, 10.0302, 0.296012, -0.34494, 0.549316, 0.137329, 0.198364, 0, 0
8293, 0.0191748, 0.0480908, 0.066958, -0.0183545, 10.0424, 0.095409, -0.305798, 0.106812, -0.0152588, 0.0152588, 0, 0
8303, 0.0183545, 0.0456299, 0.0661377, -0.0191748, 10.0424, 0.00489277, -0.533312, -0.152588, 0.0610352, 0.0762939, 0, 0
8313, 0.0175342, 0.0468603, 0.0665478, -0.0191748, 10.1843, -0.00244638, -0.790182, -0.38147, -0.0915527, -0.106812, 0, 0
8323, 0.0187646, 0.0468603, 0.066958, -0.0200977, 10.1843, 0.195711, -1.01525, -0.396728, -0.0915527, -0.152588, 0, 0
8333, 0.0187646, 0.0464502, 0.066958, -0.0191748, 10.2479, 0.227514, -0.961429, -0.228882, -0.0152588, -0.0762939, 0, 0
8343, 0.017124, 0.0472705, 0.0653174, -0.0187646, 10.1696, 0.347387, -0.853788, 0.0457764, -0.0915527, -0.0915527, 0, 0
8353, 0.0179443, 0.0456299, 0.0661377, -0.0225586, 10.0424, 0.43301, -0.570008, 0.12207, 0, 0.0457764, 0, 0
8373, 0.0163037, 0.0472705, 0.0639844, -0.0205078, 10.1329, 0.313137, -0.234853, 0.0915527, -0.0152588, 0.0457764, 0, 0
8383, 0.0163037, 0.0502441, 0.0639844, -0.0187646, 10.0424, 0.261763, -0.325369, -0.106812, 0.0305176, 0.0305176, 0, 0
8393, 0.0183545, 0.0480908, 0.0657275, -0.0205078, 10.2699, 0.134551, -0.570008, -0.152588, 0.152588, 0.106812, 0, 0
8403, 0.0179443, 0.0472705, 0.0665478, -0.0205078, 10.1721, 0.0856234, -0.807307, -0.137329, -0.12207, 0, 0, 0
8413, 0.019585, 0.0480908, 0.0649072, -0.0205078, 10.106, 0.0978554, -0.983446, 0.0610352, 0.0610352, -0.0152588, 0, 0
8423, 0.0187646, 0.0480908, 0.0665478, -0.0175342, 10.2601, 0.11498, -0.944304, 0.198364, 0, -0.0610352, 0, 0
8433, 0.0187646, 0.0472705, 0.0665478, -0.020918, 10.1916, 0.173693, -0.814646, 0.152588, -0.0457764, -0.0457764, 0, 0
8443, 0.0205078, 0.0464502, 0.0677783, -0.0191748, 10.084, 0.254424, -0.52108, 0.0762939, -0.0152588, -0.0762939, 0, 0
8463, 0.0179443, 0.04604, 0.0649072, -0.019585, 10.1134, 0.325369, -0.266656, -0.274658, -0.0152588, -0.0152588, 0, 0
8473, 0.0200977, 0.04604, 0.0677783, -0.019585, 10.0767, 0.357172, -0.398761, -0.38147, 0.0762939, -0.0457764, 0, 0
8483, 0.020918, 0.0476807, 0.0665478, -0.020918, 10.2455, 0.315584, -0.594471, -0.198364, 0.0457764, 0.0152588, 0, 0
8493, 0.020918, 0.0442969, 0.0665478, -0.0183545, 10.1403, 0.234853, -0.80486, 0.0152588, 0.0457764, 0.0152588, 0, 0
8503, 0.017124, 0.0476807, 0.0653174, -0.0175342, 10.1085, 0.171247, -0.949197, 0.320435, 0.0610352, 0.0610352, 0, 0
8513, 0.0187646, 0.0468603, 0.0649072, -0.0175342, 10.2724, 0.132105, -0.863574, 0.549316, 0.137329, 0.0457764, 0, 0
8523, 0.0200977, 0.0452197, 0.0639844, -0.0175342, 10.1305, 0.0440349, -0.726576, 0.473022, -0.0152588, 0.0762939, 0, 0
8543, 0.0213281, 0.0489111, 0.0653174, -0.0213281, 10.2626, 0.171247, -0.384082, -0.228882, 0.0457764, -0.0305176, 0, 0
8553, 0.0167139, 0.0456299, 0.0657275, -0.0200977, 10.1256, 0.205496, -0.352279, -0.671387, -0.0915527, -0.0915527, 0, 0
8563, 0.019585, 0.0480908, 0.0673682, -0.0191748, 10.1085, 0.369404, -0.48683, -0.62561, 0.0305176, -0.106812, 0, 0
8573, 0.020918, 0.0472705, 0.066958, -0.0191748, 10.2479, 0.386529, -0.631167, -0.442505, 0.0152588, 0.0457764, 0, 0
8583, 0.0205078, 0.0472705, 0.0673682, -0.0221484, 10.1134, 0.337601, -0.799968, -0.0610352, 0.0305176, 0.0305176, 0, 0
8593, 0.0205078, 0.0472705, 0.0673682, -0.0205078, 10.1134, 0.337601, -0.851342, 0.50354, 0.106812, -0.0152588, 0, 0
8603, 0.0213281, 0.04604, 0.0644971, -0.0200977, 10.2675, 0.227514, -0.760825, 0.732422, 0.0762939, 0.198364, 0, 0
8613, 0.0205078, 0.0464502, 0.066958, -0.0205078, 10.1378, 0.0684988, -0.631167, 0.656128, 0.0762939, 0.106812, 0, 0
8633, 0.019585, 0.0442969, 0.0653174, -0.0187646, 10.2577, 0.0831771, -0.450135, -0.137329, 0.0762939, 0.167847, 0, 0
8643, 0.019585, 0.0494238, 0.0653174, -0.019585, 10.0864, 0.0856234, -0.423224, -0.549316, -0.0305176, -0.12207, 0, 0
8653, 0.019585, 0.0476807, 0.0653174, -0.0191748, 10.1452, 0.337601, -0.614042, -0.762939, -0.0762939, -0.106812, 0, 0
8663, 0.0187646, 0.048501, 0.0661377, -0.0221484, 10.2406, 0.283781, -0.719237, -0.62561, 0.0305176, 0.0610352, 0, 0
8673, 0.0205078, 0.0480908, 0.0661377, -0.0183545, 10.0913, 0.332708, -0.731469, -0.183105, -0.0610352, -0.0610352, 0, 0
8683, 0.020918, 0.0480908, 0.0661377, -0.0183545, 10.1672, 0.396314, -0.787736, 0.259399, 0.137329, 0.0915527, 0, 0
8693, 0.019585, 0.0464502, 0.0661377, -0.0237891, 10.2161, 0.168801, -0.601811, 0.595093, -0.0152588, 0.152588, 0, 0
8703, 0.019585, 0.0476807, 0.0657275, -0.0200977, 10.1231, 0.25687, -0.584686, 0.717163, -0.0457764, -0.106812, 0, 0
8723, 0.0183545, 0.0472705, 0.0665478, -0.019585, 10.2381, 0.127212, -0.499062, -0.0610352, -0.0152588, -0.0305176, 0, 0
8733, 0.0213281, 0.0464502, 0.0635742, -0.019585, 10.1452, 0.205496, -0.626274, -0.396728, 0.0305176, -0.0457764, 0, 0
8743, 0.0191748, 0.0464502, 0.0661377, -0.0225586, 10.1134, 0.156569, -0.645845, -0.579834, 0.0457764, -0.0457764, 0, 0
8753, 0.0191748, 0.0472705, 0.0661377, -0.0221484, 10.2455, 0.178586, -0.819539, -0.62561, -0.0457764, -0.0915527, 0, 0
8763, 0.0187646, 0.0476807, 0.0644971, -0.020918, 10.0815, 0.269102, -0.738808, -0.335693, -0.0915527, -0.0915527, 0, 0
8773, 0.0205078, 0.0468603, 0.0677783, -0.0213281, 10.2063, 0.239746, -0.753486, 0.0152588, 0.0610352, 0.0610352, 0, 0
8783, 0.0200977, 0.0480908, 0.0661377, -0.0213281, 10.2137, 0.327815, -0.479491, 0.396728, -0.0152588, -0.0305176, 0, 0
8803, 0.020918, 0.0468603, 0.0649072, -0.0205078, 10.1916, 0.22996, -0.384082, 0.38147, -0.0305176, 0.0457764, 0, 0
8813, 0.0205078, 0.0468603, 0.0665478, -0.0221484, 10.1867, 0.237299, -0.54799, 0.0915527, 0.0457764, -0.106812, 0, 0
8823, 0.0191748, 0.0476807, 0.0677783, -0.0221484, 10.062, 0.281334, -0.594471, -0.183105, -0.0610352, 0.12207, 0, 0
8833, 0.0205078, 0.0472705, 0.0677783, -0.0221484, 10.1794, 0.0856234, -0.809753, -0.350952, -0.0457764, 0.0305176, 0, 0
8843, 0.020918, 0.0472705, 0.0665478, -0.0205078, 10.38, 0.305798, -0.946751, -0.442505, -0.0610352, 0.0152588, 0, 0
8853, 0.020918, 0.049834, 0.0665478, -0.0213281, 10.0008, 0.107641, -0.848895, -0.320435, 0.274658, 0.0610352, 0, 0
8863, 0.019585, 0.0494238, 0.066958, -0.019585, 10.3042, 0.183479, -0.692327, -0.0457764, -0.0915527, -0.0305176, 0, 0
8873, 0.0213281, 0.0472705, 0.0649072, -0.0205078, 10.2014, 0.161461, -0.479491, 0.12207, 0.228882, -0.0762939, 0, 0
8893, 0.0205078, 0.0476807, 0.0657275, -0.019585, 10.1819, 0.163908, -0.349833, 0.106812, 0.259399, -0.137329, 0, 0
8903, 0.020918, 0.0468603, 0.0657275, -0.0205078, 10.1182, 0.484384, -0.215282, 0.0762939, -0.457764, -0.0457764, 0, 0
8913, 0.020918, 0.0494238, 0.0661377, -0.0229687, 10.15, 0.178586, -0.900269, -0.0915527, 0.350952, 0.152588, 0, 0
8923, 0.020918, 0.0448096, 0.0661377, -0.020918, 10.1403, 0.398761, -0.611596, -0.167847, -0.488281, -0.12207, 0, 0
8933, 0.0229687, 0.0472705, 0.0639844, -0.0191748, 10.177, 0.251978, -1.24521, -0.0915527, 0.488281, 0.106812, 0, 0
8943, 0.0183545, 0.0468603, 0.0653174, -0.0191748, 10.0008, 0.151676, -0.525973, 0.12207, -0.50354, 0, 0, 0
8953, 0.020918, 0.0468603, 0.0649072, -0.0225586, 10.3629, 0.303352, -1.0128, 0.0457764, 0.488281, -0.0305176, 0, 0
8973, 0.019585, 0.0468603, 0.0665478, -0.0213281, 10.2088, 0.0220175, -0.413439, -0.0915527, 0.152588, -0.137329, 0, 0
8983, 0.0191748, 0.0468603, 0.0677783, -0.0200977, 9.98369, 0.278888, 0.198157, -0.12207, -0.12207, -0.137329, 0, 0
8993, 0.0217383, 0.0464502, 0.0657275, -0.0200977, 10.38, 0.127212, -1.02259, -0.152588, 0.0457764, 0.137329, 0, 0
9003, 0.0200977, 0.0464502, 0.0661377, -0.019585, 9.947, 0.25687, -0.313137, -0.106812, -0.0762939, -0.198364, 0, 0
9013, 0.0200977, 0.048501, 0.0661377, -0.0213281, 10.3653, 0.455027, -1.29414, 0, -0.0152588, 0.0305176, 0, 0
9023, 0.0200977, 0.0480908, 0.0649072, -0.0205078, 9.94455, 0.20305, -0.582239, 0.137329, 0.198364, 0.0915527, 0, 0
9033, 0.0213281, 0.0464502, 0.0665478, -0.0205078, 10.3922, 0.472152, -1.20362, 0.213623, -0.198364, -0.137329, 0, 0
9043, 0.0191748, 0.04604, 0.0681885, -0.0205078, 10.0179, 0.183479, -0.430564, 0.12207, 0.411987, 0.350952, 0, 0
9063, 0.0213281, 0.0464502, 0.0653174, -0.0217383, 9.95189, 0.117426, -0.0464813, -0.228882, 0.366211, -0.0152588, 0, 0
9073, 0.0233789, 0.0480908, 0.0657275, -0.0187646, 10.2846, 0.100302, -0.43301, -0.335693, -0.289917, 0.0610352, 0, 0
9083, 0.0217383, 0.0452197, 0.0649072, -0.0221484, 10.1354, 0.102748, -0.464813, -0.305176, 0.228882, -0.152588, 0, 0
9093, 0.0200977, 0.0494238, 0.0665478, -0.0200977, 10.1745, 0.391421, -0.758379, -0.0762939, -0.38147, -0.0305176, 0, 0
9103, 0.0213281, 0.0494238, 0.0657275, -0.0200977, 10.1329, 0.215282, -1.00302, 0.183105, 0.396728, 0.0152588, 0, 0
9113, 0.0217383, 0.0480908, 0.0657275, -0.0205078, 10.1721, 0.415885, -0.819539, 0.411987, -0.427246, -0.213623, 0, 0
9123, 0.0217383, 0.0438867, 0.066958, -0.020918, 9.95678, 0.34494, -0.883145, 0.457764, 0.38147, 0.137329, 0, 0
9143, 0.0200977, 0.0456299, 0.0665478, -0.0200977, 10.5195, 0.391421, -0.376743, 0, 0.0457764, -0.152588, 0, 0
9153, 0.0213281, 0.0456299, 0.0661377, -0.0200977, 10.0057, 0.119873, -0.198157, -0.595093, 0.244141, 0.366211, 0, 0
9163, 0.0183545, 0.048501, 0.0661377, -0.0217383, 10.3727, -0.161461, -0.684988, -0.457764, 0.0457764, -0.12207, 0, 0
9173, 0.0183545, 0.0489111, 0.0661377, -0.019585, 10.0791, 0.247085, -0.37185, -0.457764, -0.167847, -0.289917, 0, 0
9183, 0.019585, 0.0464502, 0.0644971, -0.0191748, 10.2039, 0.159015, -1.03237, -0.213623, 0.213623, 0.366211, 0, 0
9193, 0.0217383, 0.0480908, 0.0661377, -0.0217383, 10.0302, 0.0831771, -0.420778, 0.0457764, -0.183105, -0.137329, 0, 0
9203, 0.0217383, 0.0464502, 0.0657275, -0.0217383, 10.3482, 0.572454, -1.05684, 0.335693, 0.0305176, -0.259399, 0, 0
9213, 0.0205078, 0.0464502, 0.0661377, -0.0183545, 10.3384, 0.225067, -0.773057, 0.686645, 0.488281, 0.915527, 0, 0
9233, 0.0205078, 0.0489111, 0.0673682, -0.020918, 10.4436, 0.560222, -1.36753, -0.961304, 2.09045, 0.442505, 0, 0
9243, 0.0205078, 0.048501, 0.0644971, -0.0191748, 9.98125, 0.205496, 0.731469, -0.564575, -0.12207, -0.198364, 0, 0
9253, 0.0187646, 0.0448096, 0.066958, -0.0191748, 11.0381, -0.173693, -1.31371, -0.106812, -0.0610352, 0.762939, 0, 0
9263, 0.0217383, 0.0448096, 0.0661377, -0.020918, 10.0228, 0.212835, 0.787736, 0.0305176, -1.38855, -0.12207, 0, 0
9273, 0.019585, 0.0468603, 0.0661377, -0.019585, 11.3023, -0.156569, -2.55402, -0.595093, 1.67847, 0.0305176, 0, 0
9283, 0.019585, 0.0476807, 0.0649072, -0.0187646, 9.92009, 1.56079, 0.151676, 0.259399, -0.12207, 0.0457764, 0, 0
9293, 0.0217383, 0.049834, 0.0665478, -0.020918, 7.83821, -1.15469, -2.48797, -0.396728, 0.137329, 0.88501, 0, 0
9313, 0.020918, 0.0464502, 0.0677783, -0.0217383, 10.3604, 0.567561, -2.22376, 0.442505, 0.595093, 0.961304, 0, 0
9323, 0.0158936, 0.0456299, 0.0677783, -0.0225586, 10.1305, 0.281334, 1.5241, 0.610352, -1.23596, 0.366211, 0, 0
9333, 0.0158936, 0.0489111, 0.0677783, -0.020918, 9.84914, -0.467259, -1.76384, -0.0610352, -0.808716, -1.25122, 0, 0
9343, 0.0179443, 0.0476807, 0.0677783, -0.0205078, 10.8571, 0.733915, 0.455027, -0.0915527, -0.473022, 0.62561, 0, 0
9353, 0.020918, 0.048501, 0.0653174, -0.0200977, 10.2895, -0.707005, -2.07943, -0.915527, 0.564575, 0.106812, 0, 0
9363, 0.0217383, 0.048501, 0.0649072, -0.0200977, 9.76107, 0.557776, 0.501509, -0.411987, 0.228882, -0.732422, 0, 0
9373, 0.0167139, 0.0472705, 0.0635742, -0.0217383, 10.0693, 0.45992, -1.47028, 0.213623, -0.976562, 0.137329, 0, 0
9383, 0.0167139, 0.0468603, 0.0635742, -0.0213281, 10.2308, 0.134551, 0.359618, 0.732422, -0.167847, 0.823975, 0, 0
9403, 0.0200977, 0.0464502, 0.0677783, -0.019585, 9.92498, 0.604257, 0.193264, 0.900268, -0.244141, 1.38855, 0, 0
9413, 0.0191748, 0.049834, 0.0661377, -0.019585, 10.7029, 0.242192, -0.628721, 0.274658, -0.961304, -0.274658, 0, 0
9423, 0.0200977, 0.049834, 0.0665478, -0.0200977, 9.69502, 0.149229, -0.807307, 0.0305176, 0.610352, -0.320435, 0, 0
9433, 0.0200977, 0.0464502, 0.0665478, -0.020918, 10.7543, 0.450135, -0.814646, -0.366211, -0.259399, 0.778198, 0, 0
9443, 0.0187646, 0.0476807, 0.0665478, -0.0175342, 9.59472, -0.787736, -0.5749, -0.442505, 0.778198, -0.274658, 0, 0
9453, 0.020918, 0.048501, 0.0665478, -0.019585, 10.2919, 0.570008, -0.54799, -0.183105, -0.961304, -0.579834, 0, 0
9463, 0.0205078, 0.0489111, 0.0695215, -0.019585, 9.95678, -0.200604, -1.12534, -0.0915527, 0.717163, 0.427246, 0, 0
9483, 0.0187646, 0.0442969, 0.0649072, -0.019585, 10.106, 0.743701, -0.684988, 0.152588, 0.534058, -0.656128, 0, 0
9493, 0.0187646, 0.0476807, 0.0661377, -0.0175342, 10.0033, 0.37185, 0.195711, 0.228882, -0.350952, 0.88501, 0, 0
9503, 0.0183545, 0.0476807, 0.0665478, -0.0179443, 10.4803, 0.357172, -1.07152, 0.228882, 0.12207, -0.762939, 0, 0
9513, 0.0221484, 0.0468603, 0.0661377, -0.0179443, 9.93477, 0.650738, -0.234853, -0.0610352, -0.488281, 0.534058, 0, 0
9523, 0.0200977, 0.0468603, 0.0673682, -0.0187646, 10.7176, 0.232406, -1.05928, -0.0915527, 0.762939, 0.366211, 0, 0
9533, 0.0183545, 0.049834, 0.0673682, -0.0183545, 9.49442, -0.20305, -0.415885, -0.0610352, -0.152588, -0.38147, 0, 0
9543, 0.0183545, 0.0472705, 0.0661377, -0.0217383, 10.6491, 0.452581, -1.53633, 0.0152588, 0.259399, 0.366211, 0, 0
9553, 0.020918, 0.04604, 0.066958, -0.0179443, 9.72438, -0.572454, -0.0391421, 0.0610352, -0.228882, 0.289917, 0, 0
9573, 0.0205078, 0.0468603, 0.0673682, -0.0191748, 9.56781, 0.261763, -0.0342494, -0.106812, 0.152588, 0.167847, 0, 0
9583, 0.0200977, 0.048501, 0.0673682, -0.019585, 10.6295, 0.146783, -1.06173, -0.0762939, -0.320435, 0.0457764, 0, 0
9593, 0.0200977, 0.0472705, 0.0673682, -0.0187646, 9.81734, 0.631167, 0.0562668, -0.0457764, -0.244141, -0.869751, 0, 0
9603, 0.019585, 0.0464502, 0.0649072, -0.0213281, 10.4143, 0.63606, -1.08375, -0.0915527, 0.0152588, 0.991821, 0, 0
9613, 0.0191748, 0.0472705, 0.0673682, -0.0200977, 9.92009, 0.107641, -0.198157, 0.106812, 0.305176, -0.457764, 0, 0
9623, 0.0200977, 0.0472705, 0.0657275, -0.0200977, 10.3311, 0.491723, -1.50942, 0.183105, -0.457764, -0.137329, 0, 0
9633, 0.020918, 0.0472705, 0.0673682, -0.0200977, 10.2014, 0.163908, -0.107641, 0.244141, 0.564575, 0.62561, 0, 0
9653, 0.020918, 0.0472705, 0.0649072, -0.0213281, 10.0571, 0.481938, -0.188372, -0.0152588, 0.473022, -0.244141, 0, 0
9663, 0.0191748, 0.0452197, 0.0685986, -0.0229687, 10.1867, -0.193264, -0.861127, -0.167847, -0.442505, 0.396728, 0, 0
9673, 0.0200977, 0.0456299, 0.0657275, -0.0229687, 10.2577, 0.266656, -0.105195, -0.213623, 0.289917, -0.595093, 0, 0
9683, 0.0200977, 0.0456299, 0.0661377, -0.019585, 10.0571, 0.601811, -0.868466, -0.228882, -0.534058, -0.106812, 0, 0
9693, 0.0187646, 0.0489111, 0.0661377, -0.019585, 10.1231, 0.349833, -0.472152, -0.289917, 0.595093, 0.488281, 0, 0
9703, 0.0187646, 0.0472705, 0.0661377, -0.0205078, 10.2088, 0.425671, -0.949197, 0.0762939, -0.656128, -0.610352, 0, 0
9713, 0.0191748, 0.0472705, 0.0665478, -0.0213281, 10.1403, 0.606703, -0.770611, 0.183105, 0.595093, 0.579834, 0, 0
9723, 0.0200977, 0.0480908, 0.0639844, -0.0213281, 10.1843, -0.102748, -0.675202, 0.289917, -0.289917, 0.183105, 0, 0
9743, 0.0187646, 0.0476807, 0.0665478, -0.0225586, 10.221, 0.185925, -0.22996, 0.0915527, -0.274658, 0.350952, 0, 0
9753, 0.0187646, 0.0452197, 0.0657275, -0.0237891, 10.1476, -0.325369, -0.707005, -0.12207, 0.305176, -0.12207, 0, 0
9763, 0.0175342, 0.0456299, 0.0657275, -0.0237891, 10.1549, 0.398761, -0.381636, -0.305176, -0.564575, -0.518799, 0, 0
9773, 0.019585, 0.0480908, 0.0661377, -0.0225586, 10.2308, 0.320476, -0.836663, -0.320435, 0.350952, 0.228882, 0, 0
9783, 0.0205078, 0.0480908, 0.0653174, -0.0225586, 10.0815, 0.264209, -0.376743, -0.274658, -0.335693, -0.198364, 0, 0
9793, 0.0205078, 0.0464502, 0.0661377, -0.0267627, 10.2601, 0.660524, -1.16448, 0, 0.167847, -0.183105, 0, 0
9803, 0.0205078, 0.049834, 0.0661377, -0.0251221, 10.0253, 0.376743, -0.43301, 0.0915527, 0.0152588, 0.549316, 0, 0
9823, 0.0187646, 0.0452197, 0.0649072, -0.0229687, 10.0204, 0.376743, -0.102748, 0.289917, -0.0305176, 0.228882, 0, 0
9833, 0.019585, 0.0452197, 0.0685986, -0.0229687, 10.3042, -0.107641, -0.912501, 0.167847, 0.274658, 0.274658, 0, 0
9843, 0.0191748, 0.0476807, 0.0653174, -0.0225586, 10.0008, -0.0709451, -0.227514, -0.0457764, -0.198364, -0.274658, 0, 0
9853, 0.0191748, 0.0476807, 0.0653174, -0.0241992, 10.4314, 0.303352, -0.765718, -0.167847, 0, 0, 0, 0
9863, 0.0200977, 0.0472705, 0.0657275, -0.0237891, 9.93477, -0.0782843, -0.396314, -0.320435, 0.106812, 0.0610352, 0, 0
9873, 0.0205078, 0.0468603, 0.0657275, -0.0217383, 10.3629, 0.420778, -1.10577, -0.274658, -0.213623, -0.473022, 0, 0
9883, 0.0205078, 0.0448096, 0.0677783, -0.0217383, 10.0375, 0.474599, -0.491723, -0.106812, 0.167847, 0.274658, 0, 0
9893, 0.019585, 0.0448096, 0.0653174, -0.0221484, 10.2626, 0.29112, -0.873359, 0.0762939, -0.213623, 0.0915527, 0, 0
9913, 0.0187646, 0.0472705, 0.066958, -0.0229687, 10.2748, 0.320476, -0.748594, 0.213623, -0.106812, 0.335693, 0, 0
9923, 0.0187646, 0.0464502, 0.0649072, -0.0213281, 10.0522, -0.0464813, -0.310691, 0.152588, 0.12207, -0.0610352, 0, 0
9933, 0.0183545, 0.0480908, 0.0657275, -0.0213281, 10.2503, 0.254424, -0.552883, 0.0457764, -0.305176, -0.0610352, 0, 0
9943, 0.0200977, 0.0480908, 0.0649072, -0.0237891, 10.1182, -0.0220175, -0.562668, -0.152588, 0.335693, 0.213623, 0, 0
9953, 0.0191748, 0.0464502, 0.0649072, -0.0200977, 10.2332, 0.0220175, -0.834217, -0.137329, -0.289917, -0.244141, 0, 0
9963, 0.0191748, 0.04604, 0.0661377, -0.0221484, 10.1867, 0.359618, -0.672756, -0.152588, 0.244141, -0.0762939, 0, 0
9973, 0.0213281, 0.048501, 0.0635742, -0.0217383, 10.106, 0.151676, -0.763272, -0.0915527, -0.213623, 0.106812, 0, 0
9993, 0.0179443, 0.0489111, 0.0657275, -0.0217383, 10.1574, 0.491723, -0.592025, 0.0152588, -0.228882, 0.0915527, 0, 0
10003, 0.0205078, 0.0464502, 0.0665478, -0.020918, 10.1721, 0.242192, -0.540651, -0.0457764, 0.213623, 0.183105, 0, 0
10013, 0.0205078, 0.04604, 0.0665478, -0.0233789, 10.0742, 0.296012, -0.359618, 0.0152588, -0.12207, -0.198364, 0, 0
10023, 0.0175342, 0.0476807, 0.0635742, -0.0241992, 10.221, 0.266656, -0.670309, -0.0457764, 0.198364, 0.198364, 0, 0
10033, 0.0187646, 0.0468603, 0.0657275, -0.0241992, 10.1329, -0.0391421, -0.518633, -0.0152588, -0.183105, 0.0915527, 0, 0
10043, 0.019585, 0.0468603, 0.0644971, -0.0241992, 10.2357, 0.193264, -0.768165, 0.0152588, 0.0915527, -0.167847, 0, 0
10053, 0.0191748, 0.0452197, 0.0657275, -0.0233789, 10.1207, 0.107641, -0.702112, 0.106812, -0.0152588, 0.167847, 0, 0
10063, 0.0191748, 0.0472705, 0.0657275, -0.0251221, 10.2528, 0.0807307, -0.897823, 0.0457764, 0.0610352, -0.12207, 0, 0
10083, 0.0205078, 0.0468603, 0.0673682, -0.0255322, 10.2185, 0.335155, -0.601811, -0.0457764, 0.183105, 0.12207, 0, 0
10093, 0.0183545, 0.0476807, 0.0653174, -0.0255322, 10.0987, 0.261763, -0.401207, -0.213623, -0.0457764, -0.12207, 0, 0
10103, 0.0205078, 0.0476807, 0.0661377, -0.0251221, 10.2381, 0.450135, -0.638506, -0.228882, 0, -0.0610352, 0, 0
10113, 0.0205078, 0.0468603, 0.0661377, -0.0237891, 10.1134, 0.242192, -0.445242, -0.213623, 0.106812, 0.137329, 0, 0
10123, 0.0205078, 0.0468603, 0.0657275, -0.0263525, 10.2039, 0.198157, -0.755933, -0.0457764, -0.0305176, -0.0915527, 0, 0
10133, 0.0167139, 0.0480908, 0.066958, -0.0233789, 10.1207, 0.225067, -0.675202, 0.12207, 0.106812, 0.0915527, 0, 0
10143, 0.0191748, 0.0489111, 0.066958, -0.0233789, 10.2528, 0.0880698, -0.807307, 0.289917, 0.0305176, 0.183105, 0, 0
10153, 0.019585, 0.0489111, 0.0644971, -0.0237891, 10.1329, 0.0782843, -0.618935, 0.244141, 0.0457764, -0.152588, 0, 0
10173, 0.019585, 0.0464502, 0.0699316, -0.0237891, 10.1329, 0.110087, -0.511294, -0.106812, 0.12207, -0.106812, 0, 0
10183, 0.0191748, 0.0464502, 0.0635742, -0.0259424, 10.1574, 0.310691, -0.584686, -0.198364, -0.183105, 0.0152588, 0, 0
10193, 0.0205078, 0.0489111, 0.0685986, -0.0259424, 10.1476, 0.37185, -0.543097, -0.366211, 0.106812, 0.0152588, 0, 0
10203, 0.019585, 0.0489111, 0.0677783, -0.0259424, 10.1696, 0.300905, -0.66297, -0.320435, 0, -0.0610352, 0, 0
10213, 0.0158936, 0.0452197, 0.066958, -0.0247119, 10.1696, 0.381636, -0.694773, -0.12207, -0.0152588, 0.244141, 0, 0
10223, 0.0158936, 0.0480908, 0.066958, -0.0229687, 10.1647, 0.237299, -0.672756, 0.183105, 0.0305176, 0.0305176, 0, 0
10233, 0.0200977, 0.0456299, 0.0665478, -0.0221484, 10.1965, 0.144337, -0.665416, 0.259399, 0.0762939, 0.0305176, 0, 0
10253, 0.0187646, 0.0456299, 0.0661377, -0.0221484, 10.1843, 0.0709451, -0.552883, 0.198364, 0.167847, -0.167847, 0, 0
10263, 0.0191748, 0.0468603, 0.0665478, -0.0213281, 10.1549, 0.0807307, -0.533312, 0.0305176, -0.183105, -0.0610352, 0, 0
10273, 0.0187646, 0.048501, 0.0665478, -0.0229687, 10.1598, 0.278888, -0.579793, -0.198364, -0.0152588, -0.0610352, 0, 0
10283, 0.0187646, 0.0476807, 0.0649072, -0.0225586, 10.1452, 0.20305, -0.643399, -0.396728, -0.0305176, -0.106812, 0, 0
10293, 0.0191748, 0.0464502, 0.066958, -0.0237891, 10.1794, 0.330262, -0.738808, -0.38147, 0, 0.0305176, 0, 0
10303, 0.0183545, 0.0476807, 0.0661377, -0.0237891, 10.1378, 0.396314, -0.667863, -0.152588, -0.0762939, 0.0457764, 0, 0
10313, 0.0167139, 0.0476807, 0.0649072, -0.0255322, 10.1549, 0.254424, -0.729023, 0.0762939, 0.0610352, -0.0610352, 0, 0
10323, 0.019585, 0.04604, 0.0649072, -0.0247119, 10.1549, 0.25687, -0.5749, 0.259399, -0.0610352, 0.137329, 0, 0
10343, 0.0200977, 0.0448096, 0.0653174, -0.0247119, 10.1305, 0.095409, -0.472152, 0.259399, 0.0305176, -0.0762939, 0, 0
10353, 0.0200977, 0.0489111, 0.0661377, -0.0247119, 10.2112, 0.181032, -0.582239, 0.0457764, -0.0610352, 0.0610352, 0, 0
10363, 0.0179443, 0.0489111, 0.0665478, -0.0233789, 10.1525, 0.134551, -0.540651, -0.12207, 0.0305176, -0.0457764, 0, 0
10373, 0.0167139, 0.0468603, 0.0665478, -0.0237891, 10.177, 0.188372, -0.729023, -0.366211, -0.0610352, -0.0610352, 0, 0
10383, 0.0167139, 0.0456299, 0.066958, -0.0233789, 10.15, 0.325369, -0.704559, -0.350952, 0.0152588, 0.0152588, 0, 0
10393, 0.0175342, 0.0448096, 0.0665478, -0.0217383, 10.1892, 0.271549, -0.785289, -0.167847, -0.0457764, -0.0915527, 0, 0
10403, 0.019585, 0.0430664, 0.0649072, -0.0251221, 10.1403, 0.286227, -0.640953, -0.0152588, 0.0152588, 0.0152588, 0, 0
10423, 0.017124, 0.0426563, 0.0665478, -0.0213281, 10.1182, 0.188372, -0.479491, 0.198364, 0.0305176, 0.0457764, 0, 0
10433, 0.017124, 0.0472705, 0.0665478, -0.0221484, 10.1427, 0.190818, -0.52108, 0.183105, 0.137329, 0.0305176, 0, 0
10443, 0.0175342, 0.0422461, 0.0653174, -0.0233789, 10.1696, 0.20305, -0.489277, 0.152588, -0.0762939, 0, 0, 0
10453, 0.019585, 0.04604, 0.0673682, -0.0241992, 10.1598, 0.117426, -0.628721, 0.0610352, 0.0152588, -0.0610352, 0, 0
10463, 0.0175342, 0.04604, 0.0644971, -0.0241992, 10.15, 0.198157, -0.716791, -0.0915527, 0, 0.0762939, 0, 0
10473, 0.0158936, 0.0456299, 0.0673682, -0.0247119, 10.2063, 0.225067, -0.785289, -0.213623, 0.0915527, -0.0152588, 0, 0
10483, 0.0167139, 0.0452197, 0.0673682, -0.0241992, 10.1403, 0.210389, -0.768165, -0.137329, -0.137329, -0.0305176, 0, 0
10493, 0.0167139, 0.0442969, 0.0665478, -0.0229687, 10.1598, 0.278888, -0.660524, -0.106812, 0.0915527, 0.0610352, 0, 0
10513, 0.017124, 0.0438867, 0.0665478, -0.0259424, 10.1549, 0.232406, -0.479491, 0.0610352, 0.0610352, -0.0152588, 0, 0
10523, 0.0150732, 0.0438867, 0.0653174, -0.0233789, 10.1476, 0.293566, -0.462367, 0.152588, -0.0305176, 0.106812, 0, 0
10533, 0.0183545, 0.0430664, 0.0653174, -0.0247119, 10.1549, 0.195711, -0.516187, 0.0762939, -0.0305176, -0.0762939, 0, 0
10543, 0.0183545, 0.0422461, 0.0665478, -0.0221484, 10.1549, 0.210389, -0.645845, 0.0915527, 0.0457764, 0.106812, 0, 0
10553, 0.0158936, 0.0410156, 0.0665478, -0.0217383, 10.1672, 0.22996, -0.719237, 0.0305176, 0.0457764, 0.0305176, 0, 0
10563, 0.0150732, 0.0434766, 0.0635742, -0.0217383, 10.1647, 0.183479, -0.775504, -0.0152588, -0.671387, 1.15967, 0, 0
10573, 0.0150732, 0.0434766, 0.0673682, -0.0217383, 10.1036, 0.755933, -0.628721, -0.0610352, 0.564575, 0.518799, 0, 0
10593, 0.0167139, 0.0430664, 0.0681885, -0.0205078, 9.90786, 0.0195711, 0.278888, -0.137329, -0.0915527, 0.457764, 0, 0
10603, 0.0154834, 0.0418359, 0.0673682, -0.0213281, 10.3164, 1.14491, -1.50208, -0.137329, 0.442505, 1.37329, 0, 0
10613, 0.0158936, 0.0438867, 0.0665478, -0.0229687, 10.0987, -0.623828, 0.320476, 0.0305176, -0.549316, -1.90735, 0, 0
10623, 0.0154834, 0.0438867, 0.0649072, -0.0229687, 10.3188, 0.105195, -1.12044, 0.0305176, 0.411987, 0.854492, 0, 0
10633, 0.0167139, 0.0426563, 0.066958, -0.0221484, 9.8418, 1.13023, -0.330262, 0, -0.12207, 0.747681, 0, 0
10643, 0.0167139, 0.0410156, 0.066958, -0.0237891, 10.4632, -0.550436, -0.758379, 0.137329, 0.0152588, -1.70898, 0, 0
10653, 0.0179443, 0.0422461, 0.0665478, -0.020918, 9.92009, 0.63606, -0.550436, 0, -0.137329, 1.52588, 0, 0
10663, 0.0154834, 0.0426563, 0.0644971, -0.0205078, 10.1672, 0.743701, -1.15714, 0.0152588, 0.62561, 0, 0, 0
10683, 0.0158936, 0.0414258, 0.0653174, -0.0205078, 10.1036, 0.653185, -1.21096, -0.198364, 0.717163, 1.77002, 0, 0
10693, 0.0141504, 0.0418359, 0.0653174, -0.020918, 10.1549, 0.283781, -0.362065, -0.167847, -0.442505, -0.701904, 0, 0
10703, 0.0141504, 0.0426563, 0.0649072, -0.020918, 10.2773, -0.716791, -0.467259, -0.12207, 0.0457764, -0.808716, 0, 0
10713, 0.0137402, 0.0418359, 0.0665478, -0.0191748, 10.0473, 0.895377, -0.677648, -0.12207, -0.0762939, 1.41907, 0, 0
10723, 0.017124, 0.0418359, 0.0665478, -0.0191748, 10.2357, 0.0978554, -0.464813, -0.0457764, 0.0915527, -1.06812, 0, 0
10733, 0.0145605, 0.0410156, 0.0661377, -0.0191748, 10.2259, -0.22996, -0.550436, 0.0305176, -0.366211, -0.259399, 0, 0
10743, 0.0137402, 0.0434766, 0.0661377, -0.0200977, 10.0571, 1.16448, -0.829324, 0.0762939, 0.701904, 1.31226, 0, 0
10763, 0.0150732, 0.0426563, 0.0657275, -0.019585, 10.106, 0.0146783, -0.618935, 0.0610352, 0.305176, 0.457764, 0, 0
10773, 0.0133301, 0.0410156, 0.0677783, -0.019585, 10.177, 0.92718, -0.949197, 0.0152588, 0.0762939, 0.900268, 0, 0
10783, 0.0154834, 0.0410156, 0.0657275, -0.0187646, 10.1452, -0.455027, -0.212835, -0.0152588, -0.12207, -1.31226, 0, 0
10793, 0.0141504, 0.0422461, 0.0657275, -0.0213281, 10.1819, 0.0464813, -0.932072, -0.183105, 0.0152588, 0.747681, 0, 0
10803, 0.0141504, 0.0414258, 0.0661377, -0.0175342, 10.04, 0.592025, -0.37919, -0.152588, 0.213623, 0.289917, 0, 0
10813, 0.0175342, 0.0438867, 0.0653174, -0.0217383, 10.3115, -0.530865, -0.675202, 0.0305176, -0.518799, -1.12915, 0, 0
10823, 0.0183545, 0.0414258, 0.0649072, -0.0213281, 9.99103, 0.474599, -0.902716, -0.0610352, 0.106812, 1.05286, 0, 0
10833, 0.0154834, 0.0414258, 0.0653174, -0.0213281, 10.2846, 0.658077, -0.902716, 0.0457764, 0.0305176, -0.183105, 0, 0
10853, 0.0145605, 0.0434766, 0.0661377, -0.0217383, 10.2455, 0.880698, -0.322923, 0.137329, 0.335693, 1.297, 0, 0
10863, 0.0150732, 0.0422461, 0.0677783, -0.0213281, 10.0987, 0.347387, -0.716791, 0.198364, -0.167847, -0.656128, 0, 0
10873, 0.0150732, 0.0418359, 0.0649072, -0.0205078, 10.2773, -0.278888, -0.545544, -0.0305176, -0.0610352, -0.274658, 0, 0
10883, 0.0167139, 0.0418359, 0.0657275, -0.0205078, 10.0718, 0.714344, -0.567561, -0.152588, 0.228882, 1.00708, 0, 0
10893, 0.0141504, 0.0426563, 0.0661377, -0.0217383, 10.2919, -0.119873, -0.49417, -0.183105, -0.0457764, -0.976562, 0, 0
10903, 0.017124, 0.0406055, 0.0661377, -0.0217383, 10.0546, -0.254424, -0.824431, -0.0915527, -0.289917, 0.0762939, 0, 0
10913, 0.017124, 0.0414258, 0.0644971, -0.0187646, 10.2185, 0.763272, -0.48683, -0.137329, 0.259399, 0.701904, 0, 0
10933, 0.0158936, 0.0434766, 0.0657275, -0.0205078, 10.1305, 0.288673, -0.653185, 0.0457764, 0.183105, 0.50354, 0, 0
10943, 0.0167139, 0.0434766, 0.0653174, -0.0217383, 10.1329, 0.831771, -0.557776, 0.0762939, 0.0457764, 0.38147, 0, 0
10953, 0.0158936, 0.0410156, 0.0653174, -0.0179443, 10.1867, -0.139444, -0.684988, 0.0762939, -0.0915527, -0.854492, 0, 0
10963, 0.0158936, 0.0438867, 0.066958, -0.0213281, 10.106, 0.457474, -0.5749, -0.0152588, 0.0305176, 0.854492, 0, 0
10973, 0.0150732, 0.0418359, 0.066958, -0.0191748, 10.199, 0.472152, -0.530865, -0.0457764, 0.167847, -0.0915527, 0, 0
10983, 0.0137402, 0.0426563, 0.0635742, -0.0191748, 10.1623, -0.393868, -0.684988, 0.0305176, -0.396728, -0.717163, 0, 0
10993, 0.0129199, 0.0426563, 0.0627539, -0.0183545, 10.1182, 0.428117, -0.631167, -0.106812, 0.244141, 0.869751, 0, 0
11003, 0.0154834, 0.0438867, 0.0627539, -0.0200977, 10.2577, 0.173693, -0.557776, -0.167847, -0.137329, -0.50354, 0, 0
11023, 0.0150732, 0.0442969, 0.0661377, -0.0205078, 10.1794, 0.200604, -0.499062, 0.0457764, 0.228882, 0.778198, 0, 0
11033, 0.0167139, 0.0438867, 0.0644971, -0.0205078, 10.1647, 0.200604, -0.702112, 0.12207, -0.0915527, -0.595093, 0, 0
11043, 0.0141504, 0.0438867, 0.0657275, -0.0213281, 10.1598, 0.738808, -0.592025, 0.0152588, -0.0152588, 0.12207, 0, 0
11053, 0.0145605, 0.0452197, 0.0673682, -0.0200977, 10.1109, 0.738808, -0.579793, -0.0762939, 0.106812, 0.610352, 0, 0
11063, 0.0150732, 0.0434766, 0.0673682, -0.0229687, 10.2381, 0.127212, -0.599364, 0.0762939, -0.167847, -0.579834, 0, 0
11073, 0.0150732, 0.0406055, 0.0649072, -0.0205078, 10.0718, 0.428117, -0.709451, -0.0915527, 0.152588, 0.396728, 0, 0
11083, 0.0167139, 0.0401953, 0.0661377, -0.0191748, 10.2088, -0.266656, -0.533312, 0, 0.152588, 0.259399, 0, 0
11103, 0.0150732, 0.0438867, 0.0665478, -0.0233789, 10.1452, 0.342494, -0.618935, 0.0762939, 0.213623, 0.534058, 0, 0
11113, 0.0141504, 0.0422461, 0.0665478, -0.0200977, 10.1598, -0.0905162, -0.60915, 0.0152588, -0.152588, -0.0915527, 0, 0
11123, 0.0141504, 0.0430664, 0.0661377, -0.0229687, 10.1965, 0.557776, -0.658077, -0.0152588, -0.0610352, -0.488281, 0, 0
11133, 0.0137402, 0.0414258, 0.0644971, -0.0221484, 10.106, 0.396314, -0.550436, -0.152588, 0.0762939, 0.62561, 0, 0
11143, 0.0158936, 0.0414258, 0.0661377, -0.0221484, 10.1965, 0.0733915, -0.577347, -0.12207, -0.0457764, -0.259399, 0, 0
11153, 0.0137402, 0.0422461, 0.0661377, -0.0213281, 10.1696, 0.552883, -0.655631, -0.0610352, -0.106812, -0.228882, 0, 0
11163, 0.0158936, 0.0418359, 0.0661377, -0.0225586, 10.106, 0.11498, -0.60915, -0.0610352, 0.244141, 0.610352, 0, 0
11173, 0.0158936, 0.0434766, 0.0644971, -0.0217383, 10.2137, -0.0709451, -0.572454, 0.0152588, -0.183105, -0.350952, 0, 0
11193, 0.0167139, 0.0434766, 0.0673682, -0.0213281, 10.1794, -0.122319, -0.540651, -0.0152588, 0.228882, 0.442505, 0, 0
11203, 0.0141504, 0.0434766, 0.0661377, -0.0213281, 10.1672, 0.124766, -0.692327, 0.137329, -0.106812, -0.62561, 0, 0
11213, 0.0154834, 0.0434766, 0.0661377, -0.0221484, 10.1916, 0.491723, -0.63606, -0.0610352, 0.213623, 0.12207, 0, 0
11223, 0.0154834, 0.04604, 0.0657275, -0.0191748, 10.1256, 0.0831771, -0.655631, -0.228882, 0.183105, 0.198364, 0, 0
11233, 0.0163037, 0.0401953, 0.0661377, -0.0205078, 10.1965, 0.440349, -0.650738, -0.0152588, -0.198364, -0.442505, 0, 0
11243, 0.0163037, 0.0442969, 0.0665478, -0.0205078, 10.1231, 0.508848, -0.650738, -0.244141, 0.228882, 0.366211, 0, 0
11253, 0.0141504, 0.0442969, 0.0665478, -0.020918, 10.1745, 0.031803, -0.570008, -0.0152588, 0.0305176, 0.0762939, 0, 0
11273, 0.0150732, 0.04604, 0.0665478, -0.0221484, 10.1452, 0.178586, -0.543097, 0.0305176, 0.183105, 0.488281, 0, 0
11283, 0.0150732, 0.0426563, 0.0665478, -0.0191748, 10.1941, -0.119873, -0.572454, 0.0305176, 0.0610352, -0.0762939, 0, 0
11293, 0.0125098, 0.0452197, 0.0657275, -0.0200977, 10.1378, 0.31803, -0.614042, -0.0305176, 0.0915527, -0.183105, 0, 0
11303, 0.0145605, 0.0452197, 0.0653174, -0.0200977, 10.1647, 0.0978554, -0.611596, 0.0610352, 0.0915527, 0.335693, 0, 0
11313, 0.0137402, 0.0410156, 0.0649072, -0.0225586, 10.1843, 0.117426, -0.643399, -0.0305176, -0.0762939, -0.320435, 0, 0
11323, 0.0183545, 0.0438867, 0.0649072, -0.0200977, 10.1623, 0.52108, -0.684988, -0.106812, -0.183105, -0.0610352, 0, 0
11333, 0.0183545, 0.0414258, 0.0657275, -0.0221484, 10.1647, 0.198157, -0.633614, 0.106812, -0.106812, 0.289917, 0, 0
11343, 0.0154834, 0.0442969, 0.0649072, -0.0237891, 10.1843, 0.300905, -0.631167, 0.106812, -0.350952, -0.38147, 0, 0
11363, 0.0129199, 0.0456299, 0.0657275, -0.0213281, 10.1329, -0.0122319, -0.572454, -0.0457764, -0.0305176, 0.0915527, 0, 0
11373, 0.0158936, 0.0401953, 0.0657275, -0.0229687, 10.1647, 0.251978, -0.577347, 0.106812, 0.0305176, -0.274658, 0, 0
11383, 0.0158936, 0.0452197, 0.0657275, -0.0200977, 10.1623, 0.195711, -0.601811, 0, 0.0915527, 0.305176, 0, 0
11393, 0.0141504, 0.0434766, 0.066958, -0.019585, 10.1525, -0.0464813, -0.645845, 0.106812, 0.137329, -0.152588, 0, 0
11403, 0.0175342, 0.0434766, 0.0649072, -0.019585, 10.1647, 0.342494, -0.682541, 0.0457764, -0.0915527, -0.198364, 0, 0
11413, 0.0179443, 0.0426563, 0.0665478, -0.0217383, 10.1549, 0.25687, -0.729023, -0.0762939, 0.12207, 0.289917, 0, 0
11423, 0.0112793, 0.0438867, 0.0665478, -0.0200977, 10.1378, 0.161461, -0.643399, -0.0610352, -0.106812, -0.198364, 0, 0
11443, 0.0163037, 0.0430664, 0.0665478, -0.0221484, 10.1378, 0.188372, -0.582239, -0.198364, 0, 0.228882, 0, 0
11453, 0.0175342, 0.0422461, 0.0661377, -0.0221484, 10.1721, 0.20305, -0.584686, -0.0762939, -0.0610352, -0.244141, 0, 0
11463, 0.0129199, 0.0422461, 0.0639844, -0.0179443, 10.1819, 0.342494, -0.543097, 0.0762939, 0.0305176, 0.0610352, 0, 0
11473, 0.0154834, 0.0426563, 0.0653174, -0.0205078, 10.1598, 0.0171247, -0.611596, 0.0610352, -0.0152588, 0.0457764, 0, 0
11483, 0.0141504, 0.0448096, 0.0653174, -0.0221484, 10.1623, 0.198157, -0.594471, 0.0915527, -0.0915527, -0.259399, 0, 0
11493, 0.0141504, 0.0422461, 0.0649072, -0.0221484, 10.199, 0.242192, -0.677648, 0.137329, -0.0152588, 0.259399, 0, 0
11503, 0.0150732, 0.0418359, 0.0653174, -0.0237891, 10.1403, 0.0538205, -0.660524, 0.0762939, 0.0915527, 0, 0, 0
11513, 0.0163037, 0.0418359, 0.0665478, -0.0237891, 10.1696, 0.337601, -0.694773, -0.0457764, 0.0152588, -0.228882, 0, 0
11533, 0.0163037, 0.0430664, 0.0644971, -0.0241992, 10.1647, 0.161461, -0.633614, -0.228882, -0.0152588, -0.12207, 0, 0
11543, 0.0163037, 0.0430664, 0.0661377, -0.0217383, 10.1378, 0.347387, -0.601811, -0.274658, 0.0305176, -0.335693, 0, 0
11553, 0.0150732, 0.0414258, 0.0657275, -0.019585, 10.199, 0.225067, -0.601811, -0.167847, 0.0305176, 0.152588, 0, 0
11563, 0.0133301, 0.0414258, 0.0635742, -0.019585, 10.128, 0.171247, -0.589579, 0.0762939, 0.0915527, -0.0915527, 0, 0
11573, 0.0158936, 0.0426563, 0.0649072, -0.0221484, 10.1696, 0.296012, -0.640953, 0.0610352, 0.0610352, -0.0152588, 0, 0
11583, 0.0167139, 0.0401953, 0.0649072, -0.0225586, 10.1843, 0.168801, -0.633614, 0.213623, 0.0610352, 0.244141, 0, 0
11593, 0.0167139, 0.0434766, 0.0635742, -0.0213281, 10.1647, 0.239746, -0.645845, 0.152588, 0.0152588, 0.0762939, 0, 0
11603, 0.0163037, 0.0422461, 0.0673682, -0.020918, 10.1794, 0.259317, -0.616489, 0.106812, 0.0915527, 0.106812, 0, 0
11623, 0.0154834, 0.0401953, 0.0661377, -0.0200977, 10.1647, 0.276441, -0.623828, -0.12207, -0.0915527, 0.0457764, 0, 0
11633, 0.0179443, 0.0418359, 0.0661377, -0.0183545, 10.1549, 0.181032, -0.584686, -0.228882, -0.0152588, 0.0152588, 0, 0
11643, 0.0179443, 0.0430664, 0.0631641, -0.0200977, 10.1672, 0.210389, -0.633614, -0.152588, -0.0915527, -0.106812, 0, 0
11653, 0.0154834, 0.0392725, 0.0653174, -0.0217383, 10.1378, 0.266656, -0.616489, -0.106812, -0.0152588, 0.0610352, 0, 0
11663, 0.0150732, 0.0397852, 0.0665478, -0.0217383, 10.1476, 0.146783, -0.611596, 0.0152588, 0.0610352, -0.0305176, 0, 0
11673, 0.0154834, 0.0397852, 0.0653174, -0.020918, 10.1696, 0.266656, -0.640953, 0.228882, -0.0610352, -0.0762939, 0, 0
11683, 0.017124, 0.0414258, 0.0657275, -0.020918, 10.1549, 0.249531, -0.614042, 0.167847, 0.0457764, 0.183105, 0, 0
11703, 0.0150732, 0.0438867, 0.0644971, -0.0225586, 10.1696, 0.254424, -0.665416, -0.198364, 0.0915527, 0.0457764, 0, 0
11753, 0.0141504, 0.0426563, 0.0653174, -0.0217383, 10.1721, 0.210389, -0.660524, -0.0915527, -0.0457764, -0.106812, 0, 0
11763, 0.0137402, 0.0418359, 0.0661377, -0.0205078, 10.1892, 0.276441, -0.560222, 0.0152588, 0.0610352, 0, 0, 0
11773, 0.0167139, 0.0418359, 0.0644971, -0.0205078, 10.1574, 0.17614, -0.582239, 0.137329, -0.0305176, 0, 0, 0
11783, 0.0154834, 0.0418359, 0.0677783, -0.0200977, 10.15, 0.293566, -0.623828, 0.12207, 0.0610352, -0.12207, 0, 0
11793, 0.0145605, 0.0406055, 0.0677783, -0.0225586, 10.177, 0.298459, -0.623828, 0.0762939, 0.0915527, 0.0762939, 0, 0
11803, 0.0145605, 0.0438867, 0.0639844, -0.0217383, 10.1427, 0.185925, -0.709451, 0.0305176, 0.0915527, 0.0610352, 0, 0
11813, 0.0179443, 0.0418359, 0.0635742, -0.0213281, 10.1403, 0.269102, -0.677648, -0.0762939, -0.0610352, -0.0305176, 0, 0
11833, 0.0163037, 0.0426563, 0.0653174, -0.0217383, 10.1329, 0.149229, -0.618935, -0.0915527, -0.0152588, -0.0762939, 0, 0
11843, 0.0133301, 0.0392725, 0.0653174, -0.0247119, 10.1965, 0.227514, -0.616489, -0.152588, -0.0762939, -0.0152588, 0, 0
11853, 0.0163037, 0.0410156, 0.0653174, -0.0213281, 10.1672, 0.134551, -0.525973, -0.0610352, 0.0305176, 0.0915527, 0, 0
11863, 0.0163037, 0.0414258, 0.0665478, -0.0191748, 10.15, 0.244638, -0.587132, 0, -0.0610352, -0.12207, 0, 0
11873, 0.0141504, 0.0401953, 0.0657275, -0.0191748, 10.1623, 0.31803, -0.545544, 0.0152588, -0.0610352, 0.0305176, 0, 0
11883, 0.0179443, 0.0401953, 0.066958, -0.0221484, 10.1892, 0.232406, -0.63606, 0.0305176, 0.0457764, -0.12207, 0, 0
11893, 0.0158936, 0.0414258, 0.0644971, -0.0237891, 10.1476, 0.315584, -0.655631, 0, 0.0762939, -0.0762939, 0, 0
11903, 0.0163037, 0.0430664, 0.0644971, -0.0233789, 10.1867, 0.276441, -0.702112, -0.0152588, 0.0305176, 0.106812, 0, 0
11923, 0.0150732, 0.0418359, 0.0649072, -0.0221484, 10.15, 0.220175, -0.707005, -0.0915527, -0.0152588, 0, 0, 0
11933, 0.0163037, 0.0418359, 0.066958, -0.0221484, 10.1623, 0.136998, -0.570008, -0.0610352, 0.0457764, 0.12207, 0, 0
11943, 0.0150732, 0.0414258, 0.0657275, -0.0221484, 10.1623, 0.117426, -0.614042, -0.137329, 0.0610352, 0, 0, 0
11953, 0.0167139, 0.0397852, 0.0657275, -0.0225586, 10.1378, 0.227514, -0.540651, -0.137329, 0.0610352, -0.0610352, 0, 0
11963, 0.0167139, 0.0414258, 0.0657275, -0.0213281, 10.1745, 0.220175, -0.570008, -0.0457764, 0.0305176, 0.0152588, 0, 0
11973, 0.0154834, 0.0410156, 0.0653174, -0.0229687, 10.1378, 0.283781, -0.606703, -0.0152588, -0.0152588, -0.106812, 0, 0
11983, 0.0158936, 0.0410156, 0.0677783, -0.0229687, 10.1549, 0.340047, -0.675202, 0.0457764, -0.0610352, -0.0152588, 0, 0
12003, 0.0150732, 0.0406055, 0.0649072, -0.0200977, 10.1696, 0.269102, -0.709451, 0.0305176, 0.0762939, -0.0305176, 0, 0
12013, 0.0150732, 0.0384521, 0.0644971, -0.0221484, 10.1598, 0.207943, -0.660524, 0, -0.0152588, 0.0762939, 0, 0
12023, 0.0145605, 0.0392725, 0.0653174, -0.0217383, 10.1745, 0.136998, -0.631167, -0.0305176, 0.0610352, 0.0457764, 0, 0
12033, 0.0150732, 0.0392725, 0.0661377, -0.0217383, 10.1549, 0.168801, -0.592025, -0.167847, 0.0457764, 0.0305176, 0, 0
12043, 0.0179443, 0.0426563, 0.0661377, -0.0221484, 10.15, 0.11498, -0.567561, -0.167847, 0.0457764, 0.0457764, 0, 0
12053, 0.017124, 0.0401953, 0.0661377, -0.0179443, 10.1843, 0.195711, -0.545544, -0.106812, -0.0152588, -0.12207, 0, 0
12063, 0.0167139, 0.0410156, 0.0661377, -0.0221484, 10.1672, 0.29112, -0.596918, -0.0152588, -0.0305176, -0.0610352, 0, 0
12073, 0.0167139, 0.038042, 0.0677783, -0.0225586, 10.1696, 0.254424, -0.599364, 0, 0.0762939, 0.0152588, 0, 0
12093, 0.0158936, 0.0392725, 0.0665478, -0.0221484, 10.1574, 0.340047, -0.704559, 0.0457764, -0.0305176, 0.137329, 0, 0
12103, 0.0141504, 0.0426563, 0.0631641, -0.0241992, 10.15, 0.207943, -0.66297, 0.0915527, 0.0152588, 0.12207, 0, 0
12113, 0.017124, 0.0406055, 0.0631641, -0.0200977, 10.1941, 0.200604, -0.66297, 0.0305176, -0.0457764, -0.0610352, 0, 0
12123, 0.017124, 0.0410156, 0.066958, -0.0237891, 10.1721, 0.14189, -0.596918, -0.0305176, 0.0305176, 0.198364, 0, 0
12133, 0.0175342, 0.0414258, 0.0657275, -0.0233789, 10.1696, 0.063606, -0.5749, -0.106812, 0, 0.0152588, 0, 0
12143, 0.0167139, 0.0414258, 0.0677783, -0.0233789, 10.1819, 0.195711, -0.5749, -0.244141, 0.0152588, -0.106812, 0, 0
12153, 0.0158936, 0.0406055, 0.0661377, -0.0217383, 10.1696, 0.183479, -0.599364, -0.0915527, 0.0152588, 0.106812, 0, 0
12173, 0.0163037, 0.0422461, 0.0644971, -0.0200977, 10.1745, 0.398761, -0.672756, 0.0915527, 0.0305176, -0.0152588, 0, 0
12183, 0.0163037, 0.0401953, 0.0653174, -0.0221484, 10.1672, 0.300905, -0.66297, 0.0762939, 0.0305176, 0.106812, 0, 0
12193, 0.0145605, 0.0401953, 0.0661377, -0.0221484, 10.1598, 0.305798, -0.66297, 0.213623, -0.0305176, -0.106812, 0, 0
12203, 0.0137402, 0.0422461, 0.0644971, -0.0229687, 10.1794, 0.29112, -0.655631, 0.12207, 0.106812, 0.137329, 0, 0
12213, 0.0145605, 0.0410156, 0.0644971, -0.0217383, 10.177, 0.0978554, -0.614042, -0.0762939, 0.12207, 0.167847, 0, 0
12223, 0.0145605, 0.0426563, 0.0657275, -0.020918, 10.1549, 0.136998, -0.616489, -0.106812, 0.0457764, 0.0152588, 0, 0
12233, 0.0175342, 0.0376318, 0.0681885, -0.0225586, 10.1794, 0.119873, -0.579793, -0.213623, 0.0457764, 0.0610352, 0, 0
12243, 0.0167139, 0.0376318, 0.0631641, -0.0225586, 10.1598, 0.0831771, -0.577347, -0.106812, -0.0762939, 0, 0, 0
12263, 0.0167139, 0.0406055, 0.0644971, -0.0221484, 10.15, 0.269102, -0.640953, 0.0152588, 0, 0.0152588, 0, 0
12273, 0.0179443, 0.0406055, 0.0627539, -0.0229687, 10.1623, 0.300905, -0.626274, 0, -0.0915527, -0.0762939, 0, 0
12283, 0.0179443, 0.0392725, 0.0657275, -0.020918, 10.1525, 0.393868, -0.687434, 0.137329, 0.0305176, -0.0762939, 0, 0
12293, 0.017124, 0.0392725, 0.0653174, -0.020918, 10.1696, 0.283781, -0.640953, 0.106812, 0.12207, 0.0457764, 0, 0
12303, 0.0175342, 0.0430664, 0.0649072, -0.0241992, 10.1721, 0.225067, -0.638506, 0, 0.0152588, -0.0457764, 0, 0
12313, 0.0183545, 0.0414258, 0.0649072, -0.020918, 10.1623, 0.217728, -0.594471, -0.0305176, 0.0915527, 0.0152588, 0, 0
12323, 0.0137402, 0.0410156, 0.0657275, -0.0217383, 10.1892, 0.0660524, -0.604257, -0.0152588, 0.0457764, 0.12207, 0, 0
12343, 0.0167139, 0.0422461, 0.0673682, -0.0217383, 10.177, 0.227514, -0.643399, -0.12207, 0.0305176, 0.0305176, 0, 0
12353, 0.0167139, 0.0422461, 0.0639844, -0.0217383, 10.1672, 0.154122, -0.589579, -0.0762939, 0.0610352, 0.106812, 0, 0
12363, 0.0158936, 0.0410156, 0.0653174, -0.0221484, 10.1574, 0.261763, -0.658077, 0, -0.0762939, -0.152588, 0, 0
12373, 0.0175342, 0.0410156, 0.0653174, -0.019585, 10.1403, 0.388975, -0.633614, 0.0915527, 0, 0.0457764, 0, 0
12383, 0.0175342, 0.0406055, 0.0661377, -0.0247119, 10.1843, 0.293566, -0.633614, 0.0610352, 0.0457764, 0.137329, 0, 0
12393, 0.0145605, 0.0410156, 0.0657275, -0.0225586, 10.15, 0.300905, -0.623828, 0, 0.0762939, 0, 0, 0
12403, 0.0183545, 0.0410156, 0.0657275, -0.0225586, 10.1794, 0.266656, -0.628721, 0.0152588, 0.0305176, 0.0610352, 0, 0
12413, 0.0150732, 0.0406055, 0.0691113, -0.0217383, 10.1672, 0.14189, -0.606703, -0.0457764, 0, 0.0610352, 0, 0
12433, 0.0167139, 0.0406055, 0.066958, -0.0221484, 10.1598, 0.117426, -0.616489, -0.0762939, 0.0457764, 0.0152588, 0, 0
12443, 0.0145605, 0.0397852, 0.0653174, -0.0200977, 10.1843, 0.117426, -0.611596, -0.0305176, -0.0305176, -0.0915527, 0, 0
12453, 0.0137402, 0.0397852, 0.0681885, -0.0200977, 10.1623, 0.205496, -0.628721, -0.0152588, -0.0610352, -0.0762939, 0, 0
12463, 0.0133301, 0.0401953, 0.0653174, -0.0221484, 10.1721, 0.293566, -0.614042, 0, 0.0305176, 0.0457764, 0, 0
12473, 0.0163037, 0.0392725, 0.0653174, -0.0225586, 10.1794, 0.315584, -0.623828, -0.0305176, 0, -0.0152588, 0, 0
12483, 0.0154834, 0.0392725, 0.0631641, -0.020918, 10.1476, 0.349833, -0.63606, -0.0457764, 0.0305176, 0.12207, 0, 0
12493, 0.0154834, 0.0388623, 0.0653174, -0.0213281, 10.1745, 0.308244, -0.63606, -0.0305176, 0.0762939, 0.12207, 0, 0
12513, 0.0158936, 0.0414258, 0.0661377, -0.0225586, 10.1574, 0.181032, -0.643399, -0.0610352, 0.106812, 0.0915527, 0, 0
12523, 0.0150732, 0.0384521, 0.0661377, -0.0225586, 10.1794, 0.154122, -0.618935, -0.0610352, 0.137329, 0.198364, 0, 0
12533, 0.0133301, 0.0397852, 0.0657275, -0.0205078, 10.1965, 0.100302, -0.63606, -0.106812, 0.183105, 0.12207, 0, 0
12543, 0.0133301, 0.0422461, 0.0673682, -0.020918, 10.1525, 0.129658, -0.606703, 0, 0.0915527, 0.0457764, 0, 0
12553, 0.0150732, 0.0401953, 0.0661377, -0.0229687, 10.1745, 0.210389, -0.623828, -0.0152588, 0.0915527, -0.0305176, 0, 0
12563, 0.0133301, 0.0401953, 0.0657275, -0.0229687, 10.1647, 0.234853, -0.582239, -0.0305176, -0.0762939, -0.0610352, 0, 0
12573, 0.0137402, 0.0414258, 0.0673682, -0.0200977, 10.1598, 0.310691, -0.626274, 0, -0.0305176, -0.0610352, 0, 0
12583, 0.017124, 0.0410156, 0.0673682, -0.0237891, 10.106, 0.320476, -0.592025, -0.0610352, -0.0305176, -0.0762939, 0, 0
12603, 0.0154834, 0.0406055, 0.0665478, -0.0229687, 10.062, 0.264209, -0.48683, -0.0610352, 0.183105, 0.0305176, 0, 0
12613, 0.0141504, 0.0406055, 0.0657275, -0.0229687, 10.2601, 0.163908, -0.888037, 0.0305176, 0.0305176, 0.274658, 0, 0
12623, 0.0141504, 0.0388623, 0.0665478, -0.0237891, 10.1696, 0.0611596, -0.305798, -0.0152588, 0.12207, -0.12207, 0, 0
12633, 0.0167139, 0.038042, 0.0665478, -0.0237891, 10.1745, 0.173693, -0.8122, 0.0915527, 0.106812, 0.106812, 0, 0
12643, 0.0167139, 0.0406055, 0.0661377, -0.0213281, 10.128, 0.0758379, -0.401207, 0.0305176, 0.0915527, 0.0915527, 0, 0
12653, 0.0158936, 0.0384521, 0.066958, -0.0237891, 10.2381, 0.22996, -0.672756, -0.0610352, -0.0915527, -0.106812, 0, 0
12663, 0.017124, 0.0384521, 0.066958, -0.0237891, 10.0742, 0.266656, -0.508848, 0.0152588, -0.0152588, -0.0305176, 0, 0
12683, 0.0141504, 0.0392725, 0.0665478, -0.020918, 10.1647, 0.408546, -0.511294, -0.0457764, 0.106812, -0.152588, 0, 0
12693, 0.0158936, 0.0388623, 0.0661377, -0.0217383, 10.1549, 0.173693, -0.846449, -0.0457764, -0.0610352, 0.137329, 0, 0
12703, 0.0158936, 0.0410156, 0.0657275, -0.0221484, 10.1305, 0.163908, -0.545544, 0.0457764, 0, -0.106812, 0, 0
12713, 0.017124, 0.0410156, 0.0639844, -0.0221484, 10.2014, 0.271549, -0.731469, 0.12207, -0.0762939, -0.137329, 0, 0
12723, 0.017124, 0.0388623, 0.0673682, -0.0217383, 10.1207, 0.14189, -0.572454, 0.0610352, 0, 0.0762939, 0, 0
12733, 0.0158936, 0.0397852, 0.0673682, -0.0221484, 10.2185, 0.156569, -0.582239, 0.106812, -0.244141, -0.213623, 0, 0
12743, 0.0150732, 0.0410156, 0.0649072, -0.0213281, 10.1256, 0.244638, -0.577347, 0.0305176, -0.0152588, 0.0305176, 0, 0
12753, 0.0150732, 0.0401953, 0.0665478, -0.0233789, 10.1721, 0.168801, -0.611596, -0.0305176, -0.0305176, 0.0762939, 0, 0
12773, 0.017124, 0.0384521, 0.0673682, -0.0237891, 10.1867, 0.34494, -0.68988, -0.152588, 0.0762939, 0.12207, 0, 0
12783, 0.0163037, 0.0406055, 0.0649072, -0.0217383, 10.1721, 0.193264, -0.650738, -0.137329, 0.152588, 0.0610352, 0, 0
12793, 0.0163037, 0.0384521, 0.0649072, -0.0247119, 10.2112, 0.359618, -0.650738, 0, 0, -0.0915527, 0, 0
12803, 0.0163037, 0.0410156, 0.0661377, -0.0233789, 10.15, 0.207943, -0.665416, 0.0305176, 0.183105, 0.259399, 0, 0
12813, 0.017124, 0.0410156, 0.0649072, -0.0225586, 10.177, 0.129658, -0.533312, 0.0762939, -0.106812, -0.0152588, 0, 0
12823, 0.0154834, 0.0410156, 0.0657275, -0.0225586, 10.2063, 0.293566, -0.606703, 0.0305176, 0.198364, 0.167847, 0, 0
12833, 0.017124, 0.0410156, 0.0653174, -0.0213281, 10.1085, 0.117426, -0.552883, 0, 0, 0.198364, 0, 0
12853, 0.017124, 0.0384521, 0.0665478, -0.0217383, 10.1403, 0.330262, -0.645845, -0.0610352, 0, -0.0762939, 0, 0
12863, 0.017124, 0.0384521, 0.0653174, -0.0221484, 10.1647, 0.163908, -0.731469, -0.0152588, 0.0610352, 0.137329, 0, 0
12873, 0.0163037, 0.0384521, 0.0653174, -0.0221484, 10.1916, 0.322923, -0.628721, -0.0305176, -0.0610352, -0.0305176, 0, 0
12883, 0.0167139, 0.038042, 0.0644971, -0.0225586, 10.1623, 0.300905, -0.736362, 0.0457764, 0.0152588, -0.0457764, 0, 0
12893, 0.0158936, 0.0418359, 0.0644971, -0.0205078, 10.1329, 0.207943, -0.5749, 0.106812, -0.183105, -0.106812, 0, 0
12903, 0.0163037, 0.038042, 0.0639844, -0.0237891, 10.2088, 0.313137, -0.616489, 0.0152588, 0.0457764, -0.0762939, 0, 0
12913, 0.0163037, 0.0359912, 0.066958, -0.0237891, 10.1354, 0.151676, -0.538204, 0.0610352, 0.0305176, 0.0457764, 0, 0
12923, 0.0154834, 0.0359912, 0.0623437, -0.0237891, 10.1843, 0.168801, -0.584686, 0.0457764, 0.0305176, -0.167847, 0, 0
12943, 0.0158936, 0.0392725, 0.0685986, -0.0241992, 10.2112, 0.17614, -0.707005, -0.0610352, 0.0915527, 0.0915527, 0, 0
12953, 0.0175342, 0.0392725, 0.0657275, -0.0241992, 10.1549, 0.25687, -0.626274, -0.12207, -0.12207, -0.0915527, 0, 0
12963, 0.0175342, 0.0406055, 0.0639844, -0.0247119, 10.1745, 0.322923, -0.702112, -0.0610352, 0.106812, 0.0457764, 0, 0
12973, 0.017124, 0.0406055, 0.0639844, -0.0247119, 10.1574, 0.227514, -0.631167, -0.0915527, 0.106812, 0.183105, 0, 0
12983, 0.0158936, 0.0384521, 0.0639844, -0.0225586, 10.1672, 0.296012, -0.655631, 0, -0.0915527, 0, 0, 0
12993, 0.017124, 0.038042, 0.0653174, -0.0225586, 10.1329, 0.239746, -0.565115, 0.0152588, 0.106812, 0.0762939, 0, 0
13003, 0.0187646, 0.0388623, 0.0653174, -0.0247119, 10.177, 0.178586, -0.592025, 0.0305176, 0.106812, 0.0457764, 0, 0
13023, 0.0179443, 0.0388623, 0.0639844, -0.0237891, 10.1696, 0.251978, -0.670309, -0.0305176, -0.0152588, 0.0305176, 0, 0
13033, 0.017124, 0.0388623, 0.0661377, -0.0237891, 10.177, 0.102748, -0.616489, 0, -0.0152588, 0.0305176, 0, 0
13043, 0.0158936, 0.0392725, 0.0635742, -0.0247119, 10.1623, 0.298459, -0.687434, 0, -0.106812, -0.228882, 0, 0
13053, 0.0183545, 0.0384521, 0.0635742, -0.0233789, 10.0669, 0.513741, -0.68988, 0.12207, -0.0152588, 0.320435, 0, 0
13063, 0.0179443, 0.0384521, 0.0661377, -0.0263525, 10.1892, 0.0342494, -0.560222, -0.0305176, 0.198364, 0.0152588, 0, 0
13073, 0.0179443, 0.0364014, 0.0649072, -0.0229687, 10.15, 0.354726, -0.684988, -0.0152588, -0.0610352, -0.427246, 0, 0
13083, 0.0187646, 0.0364014, 0.0649072, -0.0229687, 10.1819, 0.300905, -0.631167, -0.0610352, 0.106812, 0.427246, 0, 0
13093, 0.0175342, 0.038042, 0.0649072, -0.0229687, 10.1598, -0.00489277, -0.535758, -0.0762939, -0.0762939, 0, 0, 0
13113, 0.0163037, 0.0338379, 0.0653174, -0.0229687, 10.1525, 0.193264, -0.555329, -0.0305176, 0.0610352, -0.198364, 0, 0
13123, 0.0163037, 0.0384521, 0.0649072, -0.0217383, 10.2308, 0.107641, -0.667863, 0.0305176, -0.0152588, -0.198364, 0, 0
13133, 0.0154834, 0.0384521, 0.0649072, -0.0217383, 10.1109, 0.330262, -0.606703, -0.0152588, -0.0457764, 0.228882, 0, 0
13143, 0.0150732, 0.038042, 0.0635742, -0.0229687, 10.221, -0.0366958, -0.704559, 0.0457764, 0.137329, 0.228882, 0, 0
13153, 0.017124, 0.0388623, 0.0635742, -0.0233789, 10.1109, 0.469706, -0.577347, 0.0915527, -0.213623, 0.930786, 0, 0
13163, 0.0163037, 0.0372217, 0.0649072, -0.0225586, 10.1843, 0.386529, -0.72413, -0.12207, 0.305176, -0.38147, 0, 0
13173, 0.0163037, 0.0384521, 0.0657275, -0.0213281, 10.1721, -0.119873, -0.501509, -0.0762939, -0.137329, -0.335693, 0, 0
13193, 0.0183545, 0.0372217, 0.0653174, -0.0221484, 10.106, 0.220175, -0.614042, -0.152588, 0.259399, -0.396728, 0, 0
13203, 0.0154834, 0.0376318, 0.0661377, -0.0217383, 10.221, -0.239746, -0.538204, -0.0457764, -0.0762939, -0.274658, 0, 0
13213, 0.0150732, 0.0359912, 0.0661377, -0.0221484, 10.1403, 0.650738, -0.682541, 0.106812, 0.106812, 0.747681, 0, 0
13223, 0.0150732, 0.0392725, 0.0657275, -0.0229687, 10.1696, -0.0293566, -0.621382, 0, 0.274658, -0.686645, 0, 0
13233, 0.0179443, 0.038042, 0.0665478, -0.0259424, 10.1745, -0.0978554, -0.702112, 0.0457764, -0.106812, -0.0305176, 0, 0
13243, 0.0200977, 0.038042, 0.0657275, -0.0259424, 10.106, 0.675202, -0.631167, 0.0152588, 0, 0.640869, 0, 0
13253, 0.0179443, 0.0364014, 0.0661377, -0.0233789, 10.1427, -0.0733915, -0.694773, -0.0915527, 0.183105, -0.50354, 0, 0
13263, 0.0187646, 0.0364014, 0.0661377, -0.0247119, 10.1525, 0.403653, -0.513741, -0.0152588, -0.137329, 0.396728, 0, 0
13283, 0.0179443, 0.0355811, 0.0644971, -0.0233789, 10.1403, 0.163908, -0.555329, -0.0457764, 0.183105, -0.259399, 0, 0
13293, 0.0183545, 0.0355811, 0.0649072, -0.0233789, 10.1623, 0.161461, -0.611596, -0.0457764, -0.137329, -0.152588, 0, 0
13303, 0.0154834, 0.0359912, 0.0639844, -0.0247119, 10.1867, 0.281334, -0.638506, -0.0457764, 0.152588, 0.366211, 0, 0
13313, 0.0163037, 0.0372217, 0.0639844, -0.0225586, 10.1549, 0.146783, -0.550436, 0.0457764, 0.0152588, -0.137329, 0, 0
13323, 0.0175342, 0.0376318, 0.0661377, -0.020918, 10.2406, 0.063606, -0.66297, 0.0610352, 0.0152588, -0.0305176, 0, 0
13333, 0.0175342, 0.0368115, 0.0639844, -0.0241992, 10.1256, 0.325369, -0.589579, -0.0152588, 0.12207, 0.228882, 0, 0
13343, 0.0167139, 0.0368115, 0.0657275, -0.0241992, 10.1623, 0.205496, -0.665416, 0.0762939, -0.0152588, -0.274658, 0, 0
13353, 0.0167139, 0.034248, 0.0673682, -0.0241992, 10.1647, 0.168801, -0.589579, -0.0915527, -0.0152588, -0.473022, 0, 0
13373, 0.0191748, 0.034248, 0.0657275, -0.0251221, 10.1672, 0.300905, -0.631167, -0.12207, 0.0305176, 0.0610352, 0, 0
13383, 0.0191748, 0.0359912, 0.066958, -0.0221484, 10.1354, 0.264209, -0.658077, -0.137329, 0.0305176, 0, 0, 0
13393, 0.0150732, 0.0359912, 0.0665478, -0.0221484, 10.1916, 0.185925, -0.638506, 0.12207, 0, -0.198364, 0, 0
13403, 0.0167139, 0.0368115, 0.0657275, -0.0229687, 10.1158, 0.17614, -0.614042, 0.0610352, -0.12207, -0.0610352, 0, 0
13413, 0.0158936, 0.0359912, 0.0649072, -0.0213281, 10.1819, 0.207943, -0.638506, 0.0915527, 0.0152588, -0.152588, 0, 0
13423, 0.0163037, 0.0359912, 0.0649072, -0.0229687, 10.1696, 0.17614, -0.530865, 0.183105, -0.12207, -0.106812, 0, 0
13433, 0.0163037, 0.0347607, 0.0657275, -0.0217383, 10.1476, 0.144337, -0.643399, 0.137329, -0.0457764, -0.183105, 0, 0
13453, 0.0163037, 0.0359912, 0.0661377, -0.0251221, 10.1892, 0.215282, -0.621382, -0.12207, -0.0915527, -0.320435, 0, 0
13463, 0.0141504, 0.0347607, 0.0657275, -0.0233789, 10.1403, 0.210389, -0.633614, -0.106812, -0.0915527, -0.0762939, 0, 0
13473, 0.0150732, 0.0376318, 0.0657275, -0.0247119, 10.15, 0.418332, -0.682541, -0.0457764, 0.0305176, 0.228882, 0, 0
13483, 0.0175342, 0.0347607, 0.0657275, -0.0259424, 10.1965, 0.161461, -0.604257, 0.0610352, -0.0762939, 0.0610352, 0, 0
13493, 0.0175342, 0.0368115, 0.0631641, -0.0255322, 10.128, 0.144337, -0.670309, 0.167847, 0.0762939, -0.0915527, 0, 0
13503, 0.017124, 0.0368115, 0.0653174, -0.0255322, 10.2161, 0.261763, -0.60915, 0.183105, 0.12207, 0.244141, 0, 0
13513, 0.0183545, 0.0384521, 0.0649072, -0.0237891, 10.1354, 0.20305, -0.604257, 0.152588, 0.0610352, 0.228882, 0, 0
13523, 0.0200977, 0.0392725, 0.0649072, -0.0225586, 10.15, 0.188372, -0.655631, 0.0305176, 0, 0.183105, 0, 0
13543, 0.0187646, 0.0368115, 0.0661377, -0.0217383, 10.1574, 0.239746, -0.714344, -0.0762939, -0.137329, 0.0305176, 0, 0
13553, 0.017124, 0.0368115, 0.0649072, -0.0217383, 10.128, 0.188372, -0.638506, -0.0762939, -0.0305176, 0.259399, 0, 0
13563, 0.019585, 0.0392725, 0.0631641, -0.0241992, 10.2112, 0.332708, -0.694773, -0.0915527, -0.198364, 0.366211, 0, 0
13573, 0.017124, 0.0372217, 0.0631641, -0.0229687, 10.128, 0.117426, -0.626274, 0.0152588, -0.152588, 0.0305176, 0, 0
13583, 0.0183545, 0.0397852, 0.0661377, -0.0251221, 10.1696, 0.195711, -0.66297, 0.442505, -0.762939, 0.595093, 0, 0
13593, 0.0183545, 0.0392725, 0.0649072, -0.0217383, 10.3091, 0.464813, -0.430564, 0.183105, -0.0915527, 0, 0, 0
13603, 0.0175342, 0.0392725, 0.0639844, -0.0217383, 10.2063, -0.0758379, -0.584686, -0.0305176, -1.02234, -0.62561, 0, 0
13623, 0.0191748, 0.0392725, 0.0649072, -0.0251221, 9.88095, 0.0856234, -1.20851, -0.305176, 0.0305176, 0.0457764, 0, 0
13633, 0.0175342, 0.0359912, 0.0649072, -0.0221484, 10.3384, 0.856234, 0.0733915, -0.137329, 0.686645, 0.152588, 0, 0
13643, 0.0205078, 0.038042, 0.0649072, -0.0233789, 10.1134, -0.52108, -1.80054, -0.0152588, -0.457764, -0.564575, 0, 0
13653, 0.0205078, 0.038042, 0.0657275, -0.0247119, 10.243, 0.552883, -0.269102, 0.12207, 0.0457764, 0.549316, 0, 0
13663, 0.0175342, 0.0372217, 0.0639844, -0.0247119, 10.3458, 0.340047, -0.966322, -0.0610352, 0, 0, 0, 0
13673, 0.0167139, 0.0384521, 0.0627539, -0.0247119, 9.83202, -0.0758379, -0.340047, -0.198364, -0.0305176, -0.106812, 0, 0
13683, 0.0187646, 0.0384521, 0.0627539, -0.0221484, 10.4216, 0.467259, -0.958983, 0.427246, -0.656128, 0.320435, 0, 0
13693, 0.019585, 0.0392725, 0.0644971, -0.0237891, 10.2455, 0.151676, -0.136998, -0.167847, 0.0762939, -0.457764, 0, 0
13713, 0.0200977, 0.0388623, 0.0653174, -0.0221484, 10.8546, 0.72413, -1.04216, -0.259399, 0.549316, -0.366211, 0, 0
13723, 0.0187646, 0.0359912, 0.0657275, -0.0241992, 9.92987, 0.188372, -0.68988, -0.152588, 0.0305176, 0.167847, 0, 0
13733, 0.0158936, 0.0355811, 0.0657275, -0.0229687, 10.5733, 0.161461, -0.905162, 0.518799, -0.946045, -0.564575, 0, 0
13743, 0.0191748, 0.0384521, 0.0661377, -0.0217383, 10.15, 0.320476, -0.132105, -0.534058, -0.595093, -1.69373, 0, 0
13753, 0.0191748, 0.0401953, 0.0665478, -0.0241992, 10.0375, 0.327815, -0.797521, 0.106812, -0.62561, -1.2207, 0, 0
13763, 0.0179443, 0.0401953, 0.0657275, -0.0241992, 10.2039, 0.518633, -0.337601, -0.289917, 0.915527, -0.808716, 0, 0
13773, 0.0183545, 0.0392725, 0.0657275, -0.0251221, 9.97146, 0.117426, -0.337601, -0.701904, 1.00708, 1.77002, 0, 0
13793, 0.0200977, 0.0355811, 0.0665478, -0.0221484, 10.61, -0.0880698, -0.273995, -0.350952, 0.518799, -0.62561, 0, 0
13803, 0.0200977, 0.0376318, 0.0661377, -0.0241992, 9.16171, -1.6562, -1.48496, 0.198364, -0.457764, -3.2959, 0, 0
13813, 0.0179443, 0.0376318, 0.0657275, -0.0241992, 10.6173, 0.971215, 0.0880698, 0.823975, -0.152588, 2.53296, 0, 0
13823, 0.019585, 0.0372217, 0.0639844, -0.0241992, 9.79288, 1.22564, -1.0177, -0.350952, 0.198364, 2.60925, 0, 0
13833, 0.019585, 0.0376318, 0.0677783, -0.0229687, 10.5439, -1.07152, -0.540651, -0.0915527, 0.473022, -2.22778, 0, 0
13843, 0.0175342, 0.0388623, 0.0677783, -0.0233789, 9.81979, -0.988339, -0.249531, -0.0305176, -1.37329, -2.74658, 0, 0
13853, 0.0187646, 0.0376318, 0.0657275, -0.0233789, 10.4803, 1.24766, -1.36753, -0.579834, 0.915527, 2.13623, 0, 0
13863, 0.0187646, 0.0376318, 0.0649072, -0.0233789, 9.89318, 0.900269, 0.0195711, -0.50354, 0.640869, 1.77002, 0, 0
13883, 0.0179443, 0.0392725, 0.0657275, -0.0221484, 9.96657, -0.234853, -0.501509, 0.488281, -0.320435, -0.900268, 0, 0
13893, 0.0187646, 0.0384521, 0.0657275, -0.0229687, 10.2748, 1.75406, -0.790182, -0.244141, 0.976562, 2.89917, 0, 0
13903, 0.0183545, 0.0392725, 0.0657275, -0.0247119, 9.90296, 0.342494, -0.440349, 0.335693, 0.38147, 0.305176, 0, 0
13913, 0.0183545, 0.0384521, 0.0681885, -0.0225586, 10.4216, -0.697219, -0.462367, 0.305176, -0.518799, -2.28882, 0, 0
13923, 0.0187646, 0.0384521, 0.0673682, -0.0225586, 10.0375, 0.254424, -0.853788, 0.0915527, 0.0915527, 0.961304, 0, 0
13933, 0.0163037, 0.0392725, 0.0657275, -0.0213281, 10.3237, 0.905162, -0.251978, -0.0915527, 0.595093, 1.77002, 0, 0
13943, 0.0191748, 0.0368115, 0.0657275, -0.0237891, 10.2137, -0.496616, -0.770611, -0.259399, -0.610352, -1.23596, 0, 0
13963, 0.0175342, 0.0368115, 0.0665478, -0.0225586, 10.3237, 0.63606, -0.782843, -0.518799, 0.488281, 1.57166, 0, 0
13973, 0.0191748, 0.0368115, 0.0635742, -0.0225586, 9.90541, 0.63606, -0.658077, -0.213623, 0.289917, 0.50354, 0, 0
13983, 0.0187646, 0.0376318, 0.0639844, -0.0221484, 10.3653, 0.320476, -0.491723, 0.183105, -0.38147, -1.72424, 0, 0
13993, 0.0175342, 0.0406055, 0.0639844, -0.0233789, 9.86871, 0.320476, -0.870913, 0.106812, 0.12207, 0.366211, 0, 0
14003, 0.017124, 0.0388623, 0.0649072, -0.0233789, 10.2308, -0.095409, -0.376743, 0.213623, 0.656128, 1.92261, 0, 0
14013, 0.017124, 0.0388623, 0.0639844, -0.0229687, 10.1843, -0.508848, -0.513741, 0.289917, -0.228882, -0.869751, 0, 0
14023, 0.0175342, 0.0388623, 0.066958, -0.0229687, 10.1867, 0.582239, -0.66297, 0.167847, -0.259399, -1.28174, 0, 0
14033, 0.0167139, 0.0384521, 0.0644971, -0.0259424, 10.1476, 0.393868, -0.579793, -0.0610352, 0.289917, 1.38855, 0, 0
14053, 0.0183545, 0.0388623, 0.0699316, -0.0237891, 10.0913, 0.278888, -0.616489, -0.213623, -0.274658, -1.60217, 0, 0
14063, 0.0179443, 0.0376318, 0.0649072, -0.0217383, 10.336, 0.939412, -0.880698, -0.320435, 0.198364, 0.274658, 0, 0
14073, 0.0179443, 0.0376318, 0.0649072, -0.0229687, 10.0767, 0.0709451, -0.601811, -0.259399, 0.396728, 1.40381, 0, 0
14083, 0.017124, 0.0401953, 0.0644971, -0.0229687, 10.1965, -0.00733915, -0.418332, 0.0457764, -0.0762939, -1.06812, 0, 0
14093, 0.0191748, 0.0397852, 0.0649072, -0.0237891, 10.128, 0.851342, -0.596918, 0.0915527, -0.335693, -0.686645, 0, 0
14103, 0.0175342, 0.0397852, 0.0649072, -0.0237891, 10.0791, 0.462367, -0.462367, 0.0915527, 0.50354, 1.28174, 0, 0
14113, 0.0167139, 0.0388623, 0.0665478, -0.0217383, 10.2528, -0.462367, -0.447688, 0.0610352, 0.0915527, 0.274658, 0, 0
14133, 0.0150732, 0.0384521, 0.066958, -0.0251221, 10.3042, 0.508848, -0.80486, 0.12207, 0.12207, 0.320435, 0, 0
14143, 0.0167139, 0.0388623, 0.0649072, -0.0247119, 10.0962, -0.178586, -0.780397, -0.12207, 0.0915527, 0.839233, 0, 0
14153, 0.017124, 0.0384521, 0.0649072, -0.0233789, 10.2283, -0.0978554, -0.687434, -0.106812, -0.198364, -0.854492, 0, 0
14163, 0.0167139, 0.0388623, 0.0653174, -0.0259424, 10.2577, 0.677648, -0.699666, -0.0610352, -0.289917, -0.656128, 0, 0
14173, 0.0167139, 0.0392725, 0.0639844, -0.0205078, 10.1231, 0.391421, -0.584686, -0.228882, 0.274658, 0.717163, 0, 0
14183, 0.0179443, 0.0392725, 0.0665478, -0.0205078, 10.1843, 0.0440349, -0.37919, -0.167847, 0.0305176, -0.12207, 0, 0
14193, 0.0179443, 0.0376318, 0.0665478, -0.0241992, 10.0644, 0.503955, -0.599364, -0.167847, -0.12207, -0.701904, 0, 0
14203, 0.0187646, 0.0406055, 0.0665478, -0.0229687, 10.0644, 0.587132, -0.528419, -0.0610352, 0.305176, 0.488281, 0, 0
14223, 0.0217383, 0.0401953, 0.0673682, -0.0229687, 10.1574, 0.0489277, -0.716791, 0.244141, -0.167847, -0.396728, 0, 0
14233, 0.0179443, 0.0401953, 0.0639844, -0.0229687, 10.1647, 0.337601, -0.753486, 0.259399, -0.0457764, -0.0305176, 0, 0
14243, 0.0158936, 0.0410156, 0.0661377, -0.0251221, 10.1549, 0.0489277, -0.729023, 0.0762939, 0.0152588, 0.595093, 0, 0
14253, 0.0191748, 0.0406055, 0.0639844, -0.0213281, 10.1965, 0, -0.543097, -0.0610352, -0.198364, -0.0305176, 0, 0
14263, 0.0187646, 0.0376318, 0.0639844, -0.0233789, 10.1623, 0.354726, -0.606703, -0.274658, -0.320435, -0.198364, 0, 0
14273, 0.0200977, 0.0372217, 0.0657275, -0.0217383, 10.2088, 0.477045, -0.560222, -0.366211, -0.0305176, 0.518799, 0, 0
14283, 0.0200977, 0.0372217, 0.0661377, -0.0217383, 10.1207, 0.22996, -0.570008, -0.350952, 0.0152588, 0.534058, 0, 0
14303, 0.0200977, 0.0397852, 0.0649072, -0.0233789, 10.1525, 0.469706, -0.614042, 0.167847, -0.0915527, 0.152588, 0, 0
14313, 0.0205078, 0.0384521, 0.0649072, -0.0213281, 10.1452, 0.330262, -0.682541, 0.900268, -0.137329, 0.656128, 0, 0
14323, 0.0179443, 0.0384521, 0.0657275, -0.0225586, 10.1476, 0.0464813, -0.743701, 3.34167, -0.137329, 0.244141, 0, 0
14333, 0.0179443, 0.0384521, 0.0661377, -0.0241992, 10.1819, -0.200604, -0.797521, 6.92749, 0.228882, -1.26648, 0, 0
14343, 0.0183545, 0.0406055, 0.066958, -0.0241992, 10.1525, 0.222621, -0.447688, 5.37109, -0.183105, -1.09863, 0, 0
14353, 0.0175342, 0.038042, 0.0661377, -0.0229687, 10.2308, 0, -0.819539, 0.137329, 0.366211, 0.457764, 0, 0
14363, 0.017124, 0.0384521, 0.0661377, -0.0241992, 10.1329, -0.119873, -0.621382, -0.518799, 0.213623, -0.595093, 0, 0
14373, 0.0191748, 0.0392725, 0.0635742, -0.0221484, 10.1672, 0.592025, -0.75104, -0.38147, -0.213623, -0.793457, 0, 0
14393, 0.0158936, 0.0401953, 0.0644971, -0.0233789, 10.0791, 0.188372, -0.34494, -0.0305176, 0.0457764, 0.671387, 0, 0
14403, 0.020918, 0.0401953, 0.0665478, -0.0237891, 10.1941, 0.286227, -0.506402, 0.305176, -0.274658, -0.442505, 0, 0
14413, 0.017124, 0.0410156, 0.0665478, -0.0237891, 10.0962, 0.469706, -0.376743, 0.320435, -0.12207, -0.167847, 0, 0
14423, 0.0179443, 0.0368115, 0.0644971, -0.0233789, 10.2357, 0.119873, -0.435456, 0.335693, 0, 0.549316, 0, 0
14433, 0.0179443, 0.0392725, 0.0627539, -0.0225586, 10.1305, -0.110087, -0.565115, 0.228882, -0.0915527, 0.106812, 0, 0
14443, 0.0167139, 0.0392725, 0.0661377, -0.0225586, 10.15, -0.0269102, -0.741254, 0.579834, -0.427246, -0.427246, 0, 0
14453, 0.0154834, 0.0388623, 0.0644971, -0.0225586, 10.2234, 0.305798, -1.05439, 4.82178, -0.518799, -1.11389, 0, 0
14473, 0.0183545, 0.0384521, 0.0661377, -0.0221484, 10.2724, 0.11498, -0.675202, 9.50623, -1.297, -1.89209, 0, 0
14483, 0.0179443, 0.0376318, 0.0653174, -0.0225586, 10.0449, 0.0122319, -0.52108, 13.1531, -2.28882, -4.0741, 0, 0
14493, 0.0179443, 0.0376318, 0.0665478, -0.0225586, 10.2063, 0.278888, -0.325369, 17.7155, -3.479, -6.19507, 0, 0
14503, 0.0191748, 0.0359912, 0.0661377, -0.0229687, 10.243, 0.594471, -0.584686, 22.5983, -3.32642, -7.26318, 0, 0
14513, 0.0191748, 0.0368115, 0.0657275, -0.0247119, 9.8785, 1.28435, 0.293566, 21.5912, -0.991821, -1.297, 0, 0
14523, 0.0183545, 0.0376318, 0.0657275, -0.0247119, 10.3091, 0.293566, -0.834217, 18.6157, 1.64795, 2.73132, 0, 0
14533, 0.0179443, 0.0397852, 0.0631641, -0.0241992, 10.1134, -0.207943, -1.09598, 18.1427, 0.686645, 1.15967, 0, 0
14543, 0.0179443, 0.0397852, 0.0661377, -0.0213281, 10.2601, 0.0342494, -0.77795, 12.9395, 0.0762939, 0.579834, 0, 0
14563, 0.0179443, 0.038042, 0.0649072, -0.0217383, 10.2063, 0.381636, -1.17916, 8.80432, 1.8158, 3.70789, 0, 0
14573, 0.0175342, 0.0364014, 0.0649072, -0.0251221, 10.2039, 0.565115, -1.08375, 8.13293, 2.73132, 4.79126, 0, 0
14583, 0.0187646, 0.038042, 0.0649072, -0.0237891, 10.106, 0.503955, -0.782843, 3.34167, 2.59399, 4.91333, 0, 0
14593, 0.0187646, 0.0372217, 0.0653174, -0.0233789, 10.2112, -0.499062, 0.11498, -0.274658, 1.61743, 3.58582, 0, 0
14603, 0.0175342, 0.0372217, 0.0657275, -0.0233789, 10.0351, -0.895377, -0.00978554, -0.0610352, -1.08337, -1.90735, 0, 0
14613, 0.0175342, 0.038042, 0.066958, -0.0255322, 10.2088, 0.675202, -0.572454, 0.0457764, -1.05286, -2.99072, 0, 0
14623, 0.0200977, 0.0392725, 0.066958, -0.0284033, 10.1549, 0.640953, -0.447688, -0.0610352, -0.564575, -0.671387, 0, 0
14643, 0.0183545, 0.0406055, 0.0673682, -0.0241992, 10.1378, 0.611596, -0.770611, 0.152588, 1.09863, 2.22778, 0, 0
14653, 0.0183545, 0.0406055, 0.0639844, -0.0241992, 10.2014, -0.508848, -0.856234, 0.366211, 0.534058, 2.22778, 0, 0
14663, 0.0187646, 0.0384521, 0.0661377, -0.0255322, 10.1819, -0.325369, -0.694773, 0.869751, -0.549316, -1.52588, 0, 0
14673, 0.0175342, 0.0372217, 0.0653174, -0.0251221, 10.1011, 0.589579, -0.765718, -0.0457764, -0.38147, -1.54114, 0, 0
14683, 0.0167139, 0.0388623, 0.0653174, -0.0247119, 10.2039, 0.413439, -0.638506, -0.366211, 0.137329, -0.152588, 0, 0
14693, 0.0175342, 0.038042, 0.0653174, -0.0255322, 10.1574, 0.340047, -0.450135, -0.427246, 0.518799, 0.671387, 0, 0
14703, 0.0175342, 0.038042, 0.0657275, -0.0255322, 10.1256, 0.095409, -0.374297, -0.457764, 0.701904, 1.14441, 0, 0
14713, 0.0179443, 0.0401953, 0.0653174, -0.0229687, 10.1794, -0.0978554, -0.43301, -0.0610352, 0.106812, -0.106812, 0, 0
14733, 0.0183545, 0.0384521, 0.0657275, -0.0233789, 10.1378, 0.49417, -0.829324, 0.396728, -0.137329, 0.0762939, 0, 0
14743, 0.0200977, 0.0384521, 0.0631641, -0.0229687, 10.1965, 0.388975, -0.721683, 0.549316, 0.213623, 0.88501, 0, 0
14753, 0.0200977, 0.0384521, 0.0665478, -0.0271729, 10.1305, -0.136998, -0.533312, 0.320435, -0.0915527, 0.213623, 0, 0
14763, 0.0158936, 0.0401953, 0.0649072, -0.0271729, 10.0938, 0.0122319, -0.687434, 0.0762939, -0.488281, -1.08337, 0, 0
14773, 0.0163037, 0.0384521, 0.0665478, -0.0237891, 10.2161, 0.102748, -0.391421, -0.320435, -0.808716, -1.2207, 0, 0
14783, 0.019585, 0.0384521, 0.0665478, -0.0225586, 10.0767, -0.159015, -0.633614, -0.518799, -1.0376, -1.61743, 0, 0
14793, 0.0191748, 0.0397852, 0.0661377, -0.0259424, 10.1892, 0.102748, -0.552883, -0.564575, -1.19019, -2.19727, 0, 0
14803, 0.0191748, 0.0392725, 0.0649072, -0.0259424, 10.2185, 0.518633, -0.944304, -0.289917, -0.946045, -1.63269, 0, 0
14823, 0.019585, 0.0401953, 0.0665478, -0.0247119, 10.084, 1.16693, -0.888037, 0.320435, 0.640869, 1.02234, 0, 0
14833, 0.017124, 0.0384521, 0.0665478, -0.0247119, 10.177, 1.15959, -1.40912, 0.549316, 2.30408, 4.24194, 0, 0
14843, 0.0183545, 0.038042, 0.0673682, -0.0237891, 10.1476, 0.249531, 0.0709451, 0.62561, 2.82288, 6.60706, 0, 0
14853, 0.019585, 0.0347607, 0.0653174, -0.0259424, 10.0864, -2.03295, -0.0807307, 0.640869, -0.717163, -0.183105, 0, 0
14863, 0.019585, 0.0347607, 0.0661377, -0.0259424, 10.3042, 1.02993, -0.797521, 0.366211, -1.19019, -4.53186, 0, 0
14873, 0.019585, 0.0376318, 0.0685986, -0.0255322, 10.0889, 1.41646, -0.435456, -0.396728, 0.50354, 1.90735, 0, 0
14883, 0.0200977, 0.0392725, 0.0649072, -0.0241992, 10.3898, -1.32839, -0.760825, -0.747681, 1.51062, 3.09753, 0, 0
14903, 0.0191748, 0.038042, 0.0703418, -0.0221484, 10.1574, 1.25989, -1.67333, -0.244141, -0.457764, -1.20544, 0, 0
14913, 0.0191748, 0.038042, 0.0649072, -0.0221484, 10.1525, 0.501509, -0.719237, -0.0305176, 1.4801, 2.73132, 0, 0
14923, 0.020918, 0.0376318, 0.0661377, -0.0247119, 10.1745, -0.540651, -0.508848, 0.38147, 0, -0.12207, 0, 0
14933, 0.0179443, 0.0368115, 0.0665478, -0.0241992, 10.0351, 0.958983, -0.741254, 0.610352, -0.396728, -1.80054, 0, 0
14943, 0.0191748, 0.0364014, 0.0665478, -0.0237891, 10.1134, 1.00302, -0.178586, 0.320435, -0.0152588, 1.12915, 0, 0
14953, 0.0200977, 0.0372217, 0.0665478, -0.0241992, 10.1329, -0.572454, -0.212835, -0.12207, -0.0305176, 0.534058, 0, 0
14963, 0.0200977, 0.0372217, 0.0653174, -0.0229687, 10.1892, 0.0660524, -0.259317, -0.396728, -0.686645, -1.60217, 0, 0
14973, 0.0213281, 0.0384521, 0.0644971, -0.0229687, 10.2357, 0.506402, -0.880698, -0.671387, 0, 0.274658, 0, 0
14993, 0.0200977, 0.0376318, 0.0661377, -0.0241992, 10.2259, -0.222621, -0.988339, -0.106812, -0.457764, -0.610352, 0, 0
15003, 0.0187646, 0.0388623, 0.0657275, -0.0229687, 10.1867, 0.648292, -1.19628, 0.289917, -0.0915527, -0.442505, 0, 0
15013, 0.0187646, 0.0388623, 0.0653174, -0.0229687, 10.1598, 0.384082, -0.63606, 0.50354, 0.228882, 0.839233, 0, 0
15023, 0.0183545, 0.0368115, 0.0657275, -0.0229687, 10.2112, 0.14189, -0.315584, 0.518799, -0.137329, -0.396728, 0, 0
15033, 0.0187646, 0.0364014, 0.0673682, -0.0241992, 10.0693, 0.643399, -0.185925, 0.244141, -0.274658, -0.640869, 0, 0
15043, 0.0187646, 0.0388623, 0.0673682, -0.0233789, 10.1794, 0.511294, -0.183479, -0.183105, 0.0152588, 0.473022, 0, 0
15053, 0.017124, 0.0364014, 0.0657275, -0.0247119, 10.1109, -0.00733915, -0.342494, -0.610352, 0.0152588, 0.183105, 0, 0
15073, 0.0187646, 0.0372217, 0.0644971, -0.0251221, 10.1843, 0.0660524, -1.0128, -0.396728, -0.213623, 0.244141, 0, 0
15083, 0.019585, 0.0372217, 0.0673682, -0.0225586, 10.15, -0.156569, -1.1131, 0.0457764, -0.259399, 0.0152588, 0, 0
15093, 0.0191748, 0.0355811, 0.0649072, -0.0251221, 10.2112, 0.0611596, -1.02993, 0.366211, -0.244141, -0.442505, 0, 0
15103, 0.0179443, 0.0368115, 0.0649072, -0.0247119, 10.1574, 0.215282, -0.807307, 0.534058, -0.0152588, -0.183105, 0, 0
15113, 0.0179443, 0.0372217, 0.0681885, -0.0255322, 10.15, 0.161461, -0.481938, 0.396728, 0.0762939, -0.305176, 0, 0
15123, 0.0179443, 0.0372217, 0.0665478, -0.0255322, 10.1965, 0.352279, -0.303352, 0, -0.0762939, -0.671387, 0, 0
15133, 0.0183545, 0.0355811, 0.0677783, -0.0241992, 10.128, 0.381636, -0.296012, -0.457764, -0.0305176, -0.473022, 0, 0
15143, 0.019585, 0.0347607, 0.0657275, -0.0251221, 10.1525, 0.310691, -0.437903, -0.701904, -0.106812, -0.457764, 0, 0
15163, 0.0191748, 0.0368115, 0.0665478, -0.0263525, 10.177, 0.43301, -0.983446, -0.274658, -0.137329, 0.12207, 0, 0
15173, 0.0191748, 0.0368115, 0.0639844, -0.0251221, 10.1403, 0.43301, -0.929626, 0.183105, 0.320435, 0.976562, 0, 0
15183, 0.0179443, 0.0368115, 0.0657275, -0.0251221, 10.1819, -0.0415885, -0.780397, 0.579834, 0.167847, 1.08337, 0, 0
15193, 0.0183545, 0.0338379, 0.0661377, -0.0263525, 10.1623, 0.0562668, -0.60915, 0.732422, -0.152588, 0.167847, 0, 0
15203, 0.0167139, 0.0364014, 0.0661377, -0.0251221, 10.1721, 0.300905, -0.484384, 0.518799, -0.167847, 0.289917, 0, 0
15213, 0.019585, 0.0347607, 0.0657275, -0.0237891, 10.0595, 0.0758379, -0.401207, 0.198364, 0.0305176, 0.106812, 0, 0
15223, 0.019585, 0.0347607, 0.0644971, -0.0247119, 9.95434, 0.0415885, -0.516187, -0.442505, -0.167847, 0.0915527, 0, 0
15243, 0.0175342, 0.0368115, 0.0665478, -0.0237891, 10.1256, 0.102748, -0.680095, -0.656128, -0.167847, -0.0762939, 0, 0
15253, 0.0145605, 0.0372217, 0.0665478, -0.0233789, 10.495, 0.327815, -0.951643, -0.442505, -0.167847, 0, 0, 0
15263, 0.0179443, 0.0355811, 0.0649072, -0.0225586, 10.358, 0.349833, -0.946751, 0.0457764, 0.0762939, 0.259399, 0, 0
15273, 0.0200977, 0.0334277, 0.0649072, -0.0229687, 10.2259, 0.352279, -0.790182, 0.564575, 0.198364, 0.183105, 0, 0
15283, 0.0200977, 0.0334277, 0.0677783, -0.0229687, 10.2063, 0.217728, -0.366958, 0.915527, -0.320435, 0.213623, 0, 0
15293, 0.0163037, 0.0351709, 0.066958, -0.0233789, 10.1647, 0.161461, -0.540651, 0.778198, 0, -0.595093, 0, 0
15303, 0.0191748, 0.0321973, 0.0639844, -0.0221484, 10.2063, 0.335155, -0.225067, -0.0610352, 0.732422, -0.305176, 0, 0
15313, 0.0141504, 0.0338379, 0.0639844, -0.019585, 10.2332, 0.0978554, -0.626274, -0.411987, 0.610352, -0.106812, 0, 0
15333, 0.0154834, 0.0351709, 0.0661377, -0.0229687, 10.0815, 0.107641, -1.03482, -0.732422, 0.473022, -0.259399, 0, 0
15343, 0.0175342, 0.0351709, 0.0649072, -0.0233789, 10.128, 0.227514, -1.05684, -0.289917, 0.488281, -0.0762939, 0, 0
15353, 0.0154834, 0.0334277, 0.0619336, -0.0221484, 10.0179, 0.178586, -0.775504, 0.0915527, 0.0152588, 0.106812, 0, 0
15363, 0.0183545, 0.0317871, 0.0619336, -0.0191748, 10.221, 0.293566, -0.677648, 0.457764, 0.259399, -0.167847, 0, 0
15373, 0.0179443, 0.0321973, 0.0673682, -0.0225586, 10.0913, 0.425671, -0.298459, 0.50354, 0, 0.152588, 0, 0
15383, 0.0179443, 0.0321973, 0.0661377, -0.019585, 10.243, 0.388975, -0.237299, 0.366211, -0.0762939, 0.488281, 0, 0
15393, 0.0145605, 0.0321973, 0.0657275, -0.019585, 10.1892, 0.217728, -0.205496, 0.106812, -0.0305176, 0.366211, 0, 0
15413, 0.0158936, 0.0297363, 0.0639844, -0.020918, 10.2137, 0.430564, -0.856234, -0.274658, 0.0152588, 0.473022, 0, 0
15423, 0.0150732, 0.0297363, 0.0661377, -0.019585, 9.99348, -0.239746, -0.978554, -0.549316, 0, 0.396728, 0, 0
15433, 0.0179443, 0.0297363, 0.0649072, -0.0179443, 10.4583, 0.0513741, -0.973661, -0.0762939, -0.610352, -0.839233, 0, 0
15443, 0.0179443, 0.0330176, 0.0639844, -0.0179443, 10.0179, 0.479491, -1.1131, 0.152588, 0.320435, 0.457764, 0, 0
15453, 0.0158936, 0.031377, 0.0665478, -0.019585, 10.2185, -0.374297, -0.616489, 0.183105, 0.427246, 1.02234, 0, 0
15463, 0.0154834, 0.0330176, 0.0665478, -0.017124, 10.1182, 0.0195711, -0.127212, 0.38147, -0.396728, -0.991821, 0, 0
15473, 0.0167139, 0.031377, 0.0639844, -0.0158936, 10.0228, 0.570008, -0.552883, 0.0457764, -0.228882, -0.427246, 0, 0
15483, 0.0163037, 0.0301465, 0.0657275, -0.0183545, 10.2479, 0.156569, -0.151676, -0.152588, 0.259399, 0.411987, 0, 0
15503, 0.0158936, 0.0317871, 0.0657275, -0.0167139, 10.0571, 0.687434, -0.971215, -0.259399, -0.0305176, -0.106812, 0, 0
15513, 0.017124, 0.0297363, 0.0649072, -0.0175342, 10.3702, 0.29112, -0.834217, -0.106812, 0.213623, 0.686645, 0, 0
15523, 0.0167139, 0.0317871, 0.0649072, -0.0200977, 10.1207, 0.0415885, -1.15714, 0.137329, 0.12207, -0.152588, 0, 0
15533, 0.0179443, 0.0330176, 0.0639844, -0.0154834, 10.1207, 0.381636, -0.792628, 0.366211, 0, 0.0762939, 0, 0
15543, 0.0179443, 0.0330176, 0.066958, -0.0154834, 10.2699, 0.159015, -0.643399, 0.396728, 0.427246, 0.610352, 0, 0
15553, 0.0145605, 0.031377, 0.0661377, -0.0141504, 10.0277, -0.149229, -0.325369, 0.167847, 0.228882, 0.38147, 0, 0
15563, 0.0183545, 0.0326074, 0.0649072, -0.017124, 10.2112, 0.122319, -0.205496, -0.0762939, -0.0915527, -0.320435, 0, 0
15583, 0.0163037, 0.0334277, 0.0653174, -0.0183545, 9.9788, 0.0538205, -0.207943, -0.411987, -0.396728, -0.0152588, 0, 0
15593, 0.0163037, 0.0334277, 0.0649072, -0.0158936, 10.3237, -0.154122, -1.09598, -0.38147, -0.610352, -1.49536, 0, 0
15603, 0.0163037, 0.0309668, 0.0631641, -0.0158936, 10.0718, 0.704559, -0.623828, -0.137329, -0.259399, -1.28174, 0, 0
15613, 0.0163037, 0.031377, 0.0631641, -0.0163037, 10.2479, 0.469706, -1.2868, 0.137329, -0.686645, 0.305176, 0, 0
15623, 0.0167139, 0.0317871, 0.0631641, -0.0179443, 10.1158, 0.748594, -1.04216, 0.289917, 0.839233, 0.991821, 0, 0
15633, 0.0179443, 0.0317871, 0.0649072, -0.017124, 10.1134, 0.222621, -0.364511, 0.228882, 0.411987, 2.24304, 0, 0
15643, 0.020918, 0.0317871, 0.0649072, -0.019585, 10.3262, -0.0880698, -0.729023, 0.320435, 0.183105, 0, 0, 0
15653, 0.020918, 0.0334277, 0.0657275, -0.019585, 9.97635, 0.63606, -0.0880698, 0.198364, -0.0305176, -0.0762939, 0, 0
15673, 0.0187646, 0.034248, 0.0657275, -0.0158936, 9.947, -0.127212, -0.342494, -0.167847, 0.38147, 0.640869, 0, 0
15683, 0.020918, 0.0326074, 0.0649072, -0.0141504, 10.2455, -0.342494, -0.658077, -0.183105, -0.38147, -0.137329, 0, 0
15693, 0.0179443, 0.0326074, 0.0657275, -0.0167139, 10.2112, 0.212835, -0.976107, -0.0762939, 0.0610352, -0.38147, 0, 0
15703, 0.0179443, 0.0334277, 0.0639844, -0.0167139, 10.0449, 0.0660524, -0.863574, 0.0305176, -0.0457764, 0.427246, 0, 0
15713, 0.0205078, 0.0351709, 0.0665478, -0.0163037, 10.2283, 0.163908, -0.89293, 0.198364, 0.289917, -0.228882, 0, 0
15723, 0.0217383, 0.0321973, 0.0639844, -0.0158936, 10.1354, 0.481938, -0.66297, 0.213623, 0.0762939, -0.198364, 0, 0
15733, 0.0183545, 0.0334277, 0.0639844, -0.0179443, 10.199, 0.533312, -0.653185, 0.0457764, 0.137329, 0.213623, 0, 0
15753, 0.020918, 0.0376318, 0.0661377, -0.0175342, 10.2161, 0.369404, -0.572454, -0.274658, 0.137329, 0.366211, 0, 0
15763, 0.0225586, 0.0347607, 0.0673682, -0.0167139, 10.1745, 0.166354, -0.408546, -0.289917, 0.488281, 0.274658, 0, 0
15773, 0.0229687, 0.0376318, 0.0661377, -0.0200977, 10.0742, -0.0440349, -0.584686, -0.12207, -0.0305176, -0.183105, 0, 0
15783, 0.0217383, 0.0388623, 0.0661377, -0.0167139, 10.2503, 0.0415885, -0.792628, 0.12207, -0.0915527, -0.183105, 0, 0
15793, 0.019585, 0.0384521, 0.0661377, -0.017124, 10.1794, 0.0244638, -0.697219, 0.320435, 0.152588, 0.167847, 0, 0
15803, 0.019585, 0.0384521, 0.0635742, -0.0175342, 10.0815, -0.154122, -0.790182, 0.305176, -0.0762939, -0.259399, 0, 0
15813, 0.020918, 0.038042, 0.0653174, -0.0175342, 10.2797, 0.232406, -0.528419, 0.244141, -0.244141, -0.717163, 0, 0
15823, 0.0221484, 0.0384521, 0.0644971, -0.0183545, 10.0571, 0.330262, -0.665416, -0.0762939, -0.152588, -0.564575, 0, 0
15843, 0.0213281, 0.0376318, 0.0649072, -0.0175342, 10.1892, 0.349833, -0.535758, -0.442505, -0.228882, -0.88501, 0, 0
15853, 0.020918, 0.0376318, 0.0635742, -0.0221484, 10.1085, 0.391421, -0.738808, -0.50354, -0.0457764, -0.610352, 0, 0
15863, 0.020918, 0.0372217, 0.0661377, -0.0221484, 10.1452, 0.305798, -0.628721, -0.335693, 0.106812, -0.305176, 0, 0
15873, 0.0233789, 0.0388623, 0.0673682, -0.0175342, 10.2283, 0.178586, -0.765718, 0.0305176, 0.0457764, -0.183105, 0, 0
15883, 0.0241992, 0.0368115, 0.0673682, -0.0205078, 10.1158, 0.237299, -0.704559, 0.38147, 0.0762939, 0, 0, 0
