timestamp, current1, current2, current3, current4, accel x, accel y, accel z, degrees x, degrees y, degrees z, baro temp, baro pressure
136803143, 0.0229687, 0.0284033, 0.0129199, 0.0137402, 0.11498, 7.54954, -6.86211, -0.0152588, -0.0152588, -0.0457764, 0, 0
136805603, 0.0221484, 0.0251221, 0.0150732, 0.0158936, 0.110087, 7.56911, -6.84498, -0.137329, -0.0610352, -0.0762939, 0, 0
136805653, 0.0237891, 0.0241992, 0.0150732, 0.0137402, 0.119873, 7.55688, -6.84743, -0.0762939, 0.0457764, 0.0762939, 0, 0
136805663, 0.0217383, 0.0225586, 0.0163037, 0.0158936, 0.127212, 7.58134, -6.84498, -0.0762939, -0.0305176, 0.0305176, 0, 0
136805673, 0.0233789, 0.0267627, 0.0141504, 0.0158936, 0.117426, 7.56422, -6.86455, -0.106812, -0.0610352, -0.0152588, 0, 0
136805683, 0.0255322, 0.0247119, 0.0141504, 0.0154834, 0.119873, 7.57156, -6.84988, -0.0762939, 0.0152588, -0.0152588, 0, 0
136805693, 0.0217383, 0.0247119, 0.0145605, 0.0141504, 0.117426, 7.56177, -6.85721, -0.0457764, -0.0152588, -0.0152588, 0, 0
136805713, 0.0241992, 0.0263525, 0.0116895, 0.0167139, 0.11498, 7.55688, -6.87434, -0.0610352, 0.0457764, 0.0305176, 0, 0
136805723, 0.0241992, 0.027583, 0.0141504, 0.0163037, 0.110087, 7.57156, -6.87189, -0.0915527, -0.0305176, -0.0152588, 0, 0
136805733, 0.0229687, 0.027583, 0.0141504, 0.0145605, 0.102748, 7.55933, -6.87679, -0.183105, -0.0305176, -0.0457764, 0, 0
136805743, 0.0229687, 0.027583, 0.0150732, 0.0150732, 0.11498, 7.55443, -6.85721, -0.0915527, 0, -0.0762939, 0, 0
136805753, 0.0241992, 0.0247119, 0.0133301, 0.0120996, 0.105195, 7.53976, -6.86455, -0.106812, -0.0610352, 0.0457764, 0, 0
136805763, 0.0241992, 0.0271729, 0.0133301, 0.0120996, 0.119873, 7.56911, -6.87679, -0.0152588, -0.0610352, 0, 0, 0
136805773, 0.0255322, 0.0255322, 0.0129199, 0.0150732, 0.110087, 7.56667, -6.86211, -0.0915527, 0.0152588, 0.0305176, 0, 0
136805783, 0.0251221, 0.0229687, 0.0145605, 0.0158936, 0.110087, 7.54465, -6.85966, -0.106812, -0.0152588, 0.0305176, 0, 0
136805803, 0.0229687, 0.0251221, 0.0133301, 0.0179443, 0.11498, 7.57401, -6.86211, -0.0610352, -0.0915527, -0.0305176, 0, 0
136805813, 0.0229687, 0.0267627, 0.0120996, 0.0179443, 0.119873, 7.56177, -6.86211, -0.0305176, 0, -0.0457764, 0, 0
136805823, 0.0247119, 0.0255322, 0.0125098, 0.0141504, 0.134551, 7.57156, -6.86455, -0.106812, 0.0610352, -0.0305176, 0, 0
136805833, 0.0237891, 0.0271729, 0.0120996, 0.0158936, 0.11498, 7.57401, -6.85966, -0.0915527, 0.0305176, 0.0305176, 0, 0
136805843, 0.0213281, 0.0229687, 0.0120996, 0.0163037, 0.129658, 7.55933, -6.867, -0.106812, 0, 0.0305176, 0, 0
136805853, 0.0251221, 0.0229687, 0.0116895, 0.0150732, 0.127212, 7.5789, -6.86211, -0.0152588, -0.0762939, 0, 0, 0
136805863, 0.0251221, 0.0271729, 0.0133301, 0.0150732, 0.11498, 7.56911, -6.87679, -0.106812, -0.0457764, 0, 0, 0
136805883, 0.0241992, 0.0247119, 0.0141504, 0.0154834, 0.124766, 7.55933, -6.85232, -0.0457764, -0.0152588, 0, 0, 0
136805893, 0.0225586, 0.0241992, 0.0141504, 0.0154834, 0.124766, 7.55933, -6.85721, -0.0610352, -0.0305176, 0, 0, 0
136805903, 0.0217383, 0.0241992, 0.0129199, 0.0154834, 0.102748, 7.5422, -6.87923, -0.12207, 0.0305176, -0.0152588, 0, 0
136805913, 0.0237891, 0.0247119, 0.0150732, 0.0141504, 0.122319, 7.53242, -6.87434, -0.106812, -0.0457764, -0.0305176, 0, 0
136805923, 0.0237891, 0.0237891, 0.0133301, 0.0141504, 0.11498, 7.53976, -6.87434, -0.0762939, -0.0152588, 0.0305176, 0, 0
136805933, 0.0237891, 0.0241992, 0.0154834, 0.0137402, 0.100302, 7.5471, -6.87679, -0.106812, -0.0762939, 0.0305176, 0, 0
136805943, 0.0225586, 0.0255322, 0.0154834, 0.0145605, 0.112534, 7.53242, -6.867, -0.0762939, -0.0305176, -0.0152588, 0, 0
136805953, 0.0251221, 0.0255322, 0.0120996, 0.0137402, 0.112534, 7.56422, -6.85966, -0.0915527, -0.0762939, -0.0305176, 0, 0
136805973, 0.0233789, 0.0263525, 0.0145605, 0.0137402, 0.119873, 7.56422, -6.85477, -0.0915527, 0.0610352, 0.0152588, 0, 0
136805983, 0.0247119, 0.027583, 0.0129199, 0.0154834, 0.119873, 7.57645, -6.85721, -0.0915527, 0.0610352, -0.0152588, 0, 0
136805993, 0.0237891, 0.0267627, 0.0129199, 0.0163037, 0.134551, 7.56422, -6.84988, -0.106812, 0.0305176, -0.0610352, 0, 0
136806003, 0.0221484, 0.0247119, 0.0129199, 0.0163037, 0.11498, 7.5789, -6.84254, -0.167847, -0.0457764, 0.0152588, 0, 0
136806013, 0.0237891, 0.0247119, 0.0125098, 0.0163037, 0.119873, 7.57645, -6.85966, -0.0457764, -0.0305176, -0.0610352, 0, 0
136806023, 0.0237891, 0.0251221, 0.0137402, 0.0163037, 0.112534, 7.55933, -6.85966, -0.0457764, 0.0305176, 0, 0, 0
136806033, 0.0247119, 0.0251221, 0.0129199, 0.0141504, 0.112534, 7.55199, -6.85966, -0.0152588, 0, 0.0152588, 0, 0
136806053, 0.0267627, 0.0247119, 0.0129199, 0.0167139, 0.102748, 7.55199, -6.86211, -0.106812, 0, 0.0152588, 0, 0
136806063, 0.0259424, 0.0247119, 0.0141504, 0.0145605, 0.102748, 7.56667, -6.86945, -0.137329, 0.0305176, -0.0610352, 0, 0
136806073, 0.0259424, 0.0237891, 0.0133301, 0.0145605, 0.105195, 7.53976, -6.867, -0.137329, -0.0305176, 0.0152588, 0, 0
136806083, 0.0225586, 0.0251221, 0.0141504, 0.0154834, 0.117426, 7.55688, -6.86455, -0.152588, 0.0152588, 0.0305176, 0, 0
136806093, 0.0251221, 0.0247119, 0.0141504, 0.0150732, 0.110087, 7.5422, -6.87189, -0.0762939, -0.0457764, 0.0610352, 0, 0
136806103, 0.0247119, 0.0255322, 0.0141504, 0.0141504, 0.112534, 7.54954, -6.85477, -0.0457764, 0, -0.0457764, 0, 0
136806113, 0.0229687, 0.0255322, 0.0145605, 0.0158936, 0.102748, 7.55933, -6.86945, -0.12207, 0.0915527, -0.0305176, 0, 0
136806123, 0.0237891, 0.0271729, 0.0145605, 0.0154834, 0.095409, 7.5471, -6.867, -0.0305176, 0.0305176, -0.0152588, 0, 0
136806143, 0.0237891, 0.0241992, 0.0137402, 0.0179443, 0.105195, 7.55443, -6.85232, -0.167847, -0.0762939, 0, 0, 0
136806153, 0.0221484, 0.0255322, 0.0137402, 0.0125098, 0.112534, 7.55443, -6.85966, -0.0915527, 0.0152588, -0.0305176, 0, 0
136806163, 0.0221484, 0.0255322, 0.0150732, 0.0150732, 0.110087, 7.56177, -6.85966, -0.106812, -0.0152588, 0, 0, 0
136806173, 0.0221484, 0.0241992, 0.0133301, 0.0141504, 0.122319, 7.56422, -6.86945, -0.152588, 0, -0.0152588, 0, 0
136806183, 0.0221484, 0.0259424, 0.0133301, 0.0141504, 0.129658, 7.56177, -6.86211, -0.152588, -0.0762939, -0.0762939, 0, 0
136806193, 0.0225586, 0.0251221, 0.0145605, 0.017124, 0.122319, 7.57156, -6.84254, -0.106812, 0.106812, -0.0305176, 0, 0
136806203, 0.0247119, 0.0255322, 0.0145605, 0.0175342, 0.122319, 7.58134, -6.84498, -0.152588, -0.0457764, -0.0305176, 0, 0
136806223, 0.0217383, 0.0267627, 0.0145605, 0.0154834, 0.119873, 7.55199, -6.867, -0.137329, 0.0305176, 0, 0, 0
136806233, 0.0217383, 0.0259424, 0.0125098, 0.0154834, 0.112534, 7.56177, -6.88412, -0.0457764, 0.0152588, 0, 0, 0
136806243, 0.0233789, 0.0237891, 0.0133301, 0.0163037, 0.100302, 7.56177, -6.867, -0.0915527, 0.0305176, -0.0610352, 0, 0
136806253, 0.0229687, 0.0255322, 0.0145605, 0.0158936, 0.105195, 7.5422, -6.87434, -0.0457764, 0.0305176, 0.0457764, 0, 0
136806263, 0.0217383, 0.0255322, 0.0145605, 0.0137402, 0.107641, 7.5422, -6.85477, -0.12207, -0.0457764, -0.0610352, 0, 0
136806273, 0.0237891, 0.0255322, 0.0154834, 0.0133301, 0.110087, 7.55933, -6.87189, -0.137329, -0.0762939, 0.0457764, 0, 0
136806283, 0.0237891, 0.0233789, 0.0141504, 0.0133301, 0.127212, 7.55933, -6.85721, -0.0610352, 0, 0.0457764, 0, 0
136806293, 0.0229687, 0.0271729, 0.0133301, 0.0163037, 0.119873, 7.53976, -6.84498, -0.0305176, 0.0610352, 0.0305176, 0, 0
136806313, 0.0241992, 0.0263525, 0.0116895, 0.0163037, 0.112534, 7.56422, -6.84743, -0.152588, -0.0457764, 0, 0, 0
136806323, 0.0247119, 0.0263525, 0.0141504, 0.0133301, 0.0929626, 7.57156, -6.867, -0.0915527, -0.0457764, -0.0152588, 0, 0
136806333, 0.0259424, 0.0271729, 0.0137402, 0.0163037, 0.124766, 7.56177, -6.85477, -0.0457764, 0, -0.0762939, 0, 0
136806343, 0.0259424, 0.0271729, 0.0129199, 0.0163037, 0.105195, 7.57401, -6.86211, -0.0610352, 0.0457764, 0.0305176, 0, 0
136806353, 0.0217383, 0.0255322, 0.0150732, 0.0163037, 0.105195, 7.57645, -6.86211, -0.0915527, 0.0305176, 0, 0, 0
136806363, 0.0233789, 0.0255322, 0.0150732, 0.0167139, 0.122319, 7.57156, -6.86211, -0.0305176, -0.0305176, 0, 0, 0
136806373, 0.0233789, 0.0255322, 0.0145605, 0.0150732, 0.117426, 7.55199, -6.867, -0.137329, -0.0762939, 0.0457764, 0, 0
136806393, 0.0241992, 0.0241992, 0.0133301, 0.0133301, 0.117426, 7.55199, -6.85721, -0.137329, 0.0152588, 0.0610352, 0, 0
136806403, 0.0259424, 0.0247119, 0.0129199, 0.0141504, 0.117426, 7.5471, -6.867, -0.106812, -0.0762939, 0, 0, 0
136806413, 0.0237891, 0.0241992, 0.0129199, 0.0150732, 0.11498, 7.56177, -6.87434, -0.152588, -0.0152588, -0.0457764, 0, 0
136806423, 0.0225586, 0.0241992, 0.0129199, 0.0145605, 0.122319, 7.54465, -6.86455, -0.12207, 0.0762939, -0.0305176, 0, 0
136806433, 0.0229687, 0.027583, 0.0150732, 0.0133301, 0.105195, 7.55933, -6.84743, -0.0762939, -0.0305176, 0.0305176, 0, 0
136806443, 0.0229687, 0.0284033, 0.0116895, 0.0133301, 0.107641, 7.5422, -6.86211, -0.12207, 0.0305176, -0.0305176, 0, 0
136806453, 0.0229687, 0.0263525, 0.0137402, 0.0150732, 0.102748, 7.5422, -6.86211, -0.0457764, -0.0152588, 0, 0, 0
136806463, 0.0241992, 0.0255322, 0.0112793, 0.0163037, 0.110087, 7.54954, -6.87189, -0.0915527, 0.12207, -0.0152588, 0, 0
136806483, 0.0233789, 0.0259424, 0.0137402, 0.0175342, 0.119873, 7.54465, -6.86945, -0.0915527, 0.0305176, 0.0610352, 0, 0
136806493, 0.0233789, 0.0241992, 0.0133301, 0.0175342, 0.127212, 7.55933, -6.87189, -0.0610352, -0.0305176, 0, 0, 0
136806503, 0.0217383, 0.0263525, 0.0141504, 0.0150732, 0.102748, 7.57645, -6.86211, -0.0762939, -0.0610352, -0.0152588, 0, 0
136806513, 0.0247119, 0.0251221, 0.0108691, 0.0141504, 0.127212, 7.56911, -6.84743, -0.0610352, 0.0457764, -0.0457764, 0, 0
136806523, 0.0237891, 0.0251221, 0.0108691, 0.017124, 0.107641, 7.55933, -6.867, -0.183105, 0.0305176, 0.0915527, 0, 0
136806533, 0.0221484, 0.0251221, 0.0141504, 0.0141504, 0.122319, 7.56911, -6.86455, -0.167847, 0.0305176, 0.0457764, 0, 0
136806543, 0.0255322, 0.0241992, 0.0112793, 0.0141504, 0.110087, 7.56177, -6.86455, -0.0762939, 0.0610352, 0, 0, 0
136806563, 0.0225586, 0.0255322, 0.0150732, 0.0154834, 0.132105, 7.55443, -6.86945, -0.106812, -0.0457764, -0.0457764, 0, 0
136806573, 0.0237891, 0.0241992, 0.0150732, 0.0154834, 0.124766, 7.56177, -6.87434, -0.0152588, 0.0457764, -0.0610352, 0, 0
136806583, 0.0263525, 0.0241992, 0.0125098, 0.0129199, 0.119873, 7.55688, -6.86211, -0.0610352, 0.0152588, -0.0152588, 0, 0
136806593, 0.0251221, 0.0255322, 0.0133301, 0.0137402, 0.0978554, 7.56667, -6.85477, -0.198364, 0.0152588, 0.0152588, 0, 0
136806603, 0.0251221, 0.027583, 0.0120996, 0.0137402, 0.107641, 7.57156, -6.86455, -0.0305176, 0.0305176, -0.0305176, 0, 0
136806613, 0.0247119, 0.0271729, 0.0145605, 0.0129199, 0.110087, 7.55443, -6.84254, -0.0457764, 0.0152588, 0, 0, 0
136806623, 0.0233789, 0.0251221, 0.0137402, 0.0158936, 0.110087, 7.55443, -6.86211, -0.0762939, -0.0457764, 0.0610352, 0, 0
136806633, 0.0229687, 0.0251221, 0.0137402, 0.017124, 0.105195, 7.56667, -6.86945, -0.0915527, -0.0457764, 0.0305176, 0, 0
136806653, 0.0259424, 0.0259424, 0.0133301, 0.0150732, 0.105195, 7.56667, -6.85477, -0.0457764, 0.0457764, -0.0152588, 0, 0
136806663, 0.0247119, 0.0263525, 0.0141504, 0.0145605, 0.095409, 7.57156, -6.85477, -0.137329, 0, -0.0457764, 0, 0
136806673, 0.0237891, 0.027583, 0.0120996, 0.0125098, 0.11498, 7.56911, -6.85721, -0.137329, -0.0152588, -0.0457764, 0, 0
136806683, 0.0263525, 0.0247119, 0.0120996, 0.0141504, 0.100302, 7.55443, -6.86211, -0.137329, 0.0457764, 0, 0, 0
136806693, 0.0225586, 0.0247119, 0.0141504, 0.0175342, 0.100302, 7.56911, -6.87434, -0.0610352, 0.0305176, -0.0610352, 0, 0
136806703, 0.0237891, 0.0263525, 0.00912598, 0.0175342, 0.110087, 7.55443, -6.86211, -0.0305176, -0.0457764, -0.0305176, 0, 0
136806713, 0.0237891, 0.0259424, 0.0125098, 0.0167139, 0.105195, 7.56911, -6.86455, -0.106812, -0.137329, 0.0152588, 0, 0
136806733, 0.0237891, 0.0267627, 0.0112793, 0.0125098, 0.119873, 7.55688, -6.867, -0.0610352, 0, -0.0152588, 0, 0
136806743, 0.0241992, 0.0267627, 0.0145605, 0.017124, 0.129658, 7.55688, -6.85232, -0.0762939, 0.0305176, 0, 0, 0
136806753, 0.0255322, 0.0247119, 0.0137402, 0.0150732, 0.132105, 7.55443, -6.85966, -0.12207, -0.183105, 0, 0, 0
136806763, 0.0255322, 0.0241992, 0.0137402, 0.0150732, 0.124766, 7.55199, -6.85721, -0.106812, -0.0152588, 0.0152588, 0, 0
136806773, 0.0233789, 0.0259424, 0.0133301, 0.0133301, 0.124766, 7.56911, -6.86945, -0.0610352, -0.0305176, 0, 0, 0
136806783, 0.0241992, 0.0221484, 0.0133301, 0.0163037, 0.119873, 7.55933, -6.85966, -0.0457764, -0.0457764, 0.0457764, 0, 0
136806793, 0.0237891, 0.0221484, 0.0125098, 0.0141504, 0.122319, 7.55933, -6.86945, -0.0762939, -0.0610352, 0, 0, 0
136806803, 0.0233789, 0.0247119, 0.010459, 0.0163037, 0.0978554, 7.55933, -6.86945, -0.0457764, 0, 0.0152588, 0, 0
136806823, 0.0229687, 0.0259424, 0.0141504, 0.0154834, 0.0978554, 7.56667, -6.86945, -0.12207, 0, -0.0152588, 0, 0
136806833, 0.0225586, 0.0241992, 0.0145605, 0.0145605, 0.112534, 7.55443, -6.86945, -0.137329, 0.0610352, 0, 0, 0
136806843, 0.0251221, 0.0241992, 0.0145605, 0.0133301, 0.122319, 7.55199, -6.85966, -0.0762939, -0.0305176, -0.0152588, 0, 0
136806853, 0.0263525, 0.0288135, 0.0137402, 0.0145605, 0.105195, 7.56177, -6.86945, -0.0305176, -0.0305176, -0.0457764, 0, 0
136806863, 0.0263525, 0.0241992, 0.0154834, 0.0145605, 0.107641, 7.55443, -6.86945, -0.106812, 0, -0.0305176, 0, 0
136806873, 0.0225586, 0.027583, 0.0150732, 0.0163037, 0.105195, 7.56911, -6.86211, -0.0915527, -0.0305176, 0.0152588, 0, 0
136806883, 0.0229687, 0.0255322, 0.0125098, 0.0137402, 0.100302, 7.57401, -6.86211, -0.167847, -0.0610352, 0.0152588, 0, 0
136806893, 0.0247119, 0.0255322, 0.0125098, 0.019585, 0.102748, 7.55443, -6.85966, -0.0915527, -0.0152588, 0.0152588, 0, 0
136806913, 0.0251221, 0.0247119, 0.0133301, 0.0150732, 0.112534, 7.55443, -6.86455, -0.0762939, 0, 0, 0, 0
136806923, 0.0251221, 0.0233789, 0.0158936, 0.0154834, 0.11498, 7.55933, -6.87434, -0.0457764, -0.0305176, 0, 0, 0
136806933, 0.0259424, 0.0267627, 0.0141504, 0.0158936, 0.117426, 7.55443, -6.85721, -0.137329, -0.0305176, -0.0457764, 0, 0
136806943, 0.0233789, 0.0271729, 0.0141504, 0.0133301, 0.107641, 7.56422, -6.85232, -0.0915527, 0, 0.0152588, 0, 0
136806953, 0.0251221, 0.0271729, 0.0129199, 0.0129199, 0.110087, 7.5471, -6.85232, -0.106812, -0.0305176, -0.0305176, 0, 0
136806963, 0.0241992, 0.027583, 0.0133301, 0.0129199, 0.122319, 7.55933, -6.86211, -0.106812, 0.0305176, -0.0152588, 0, 0
136806973, 0.0241992, 0.0263525, 0.0150732, 0.0129199, 0.110087, 7.55443, -6.87434, -0.0610352, -0.0152588, 0.0457764, 0, 0
136806993, 0.0225586, 0.0259424, 0.0163037, 0.0158936, 0.11498, 7.56177, -6.85966, -0.152588, -0.0457764, -0.0457764, 0, 0
136807003, 0.0241992, 0.0259424, 0.0133301, 0.0158936, 0.122319, 7.57645, -6.85232, -0.106812, -0.0610352, -0.0305176, 0, 0
136807013, 0.0237891, 0.0237891, 0.0137402, 0.0154834, 0.119873, 7.55443, -6.85966, -0.0610352, 0.0610352, 0.0457764, 0, 0
136807023, 0.0237891, 0.0229687, 0.0154834, 0.0154834, 0.124766, 7.55199, -6.85721, -0.0610352, -0.0152588, -0.0610352, 0, 0
136807033, 0.0255322, 0.0263525, 0.0129199, 0.0145605, 0.117426, 7.57156, -6.867, -0.12207, -0.0305176, -0.0305176, 0, 0
136807043, 0.0233789, 0.0233789, 0.0133301, 0.0150732, 0.117426, 7.55933, -6.87189, -0.0762939, 0, -0.0152588, 0, 0
136807053, 0.0237891, 0.0233789, 0.0133301, 0.0167139, 0.112534, 7.54954, -6.85232, -0.0152588, -0.0152588, 0.0152588, 0, 0
136807063, 0.0241992, 0.0241992, 0.0133301, 0.0158936, 0.11498, 7.56667, -6.86455, -0.0610352, 0.106812, -0.0305176, 0, 0
136807083, 0.0247119, 0.0251221, 0.0154834, 0.0158936, 0.124766, 7.55199, -6.84254, -0.0915527, 0.0457764, -0.0152588, 0, 0
136807093, 0.0247119, 0.0267627, 0.0133301, 0.0145605, 0.105195, 7.56422, -6.86211, -0.0915527, 0.0915527, -0.0152588, 0, 0
136807103, 0.0247119, 0.0267627, 0.0133301, 0.0154834, 0.122319, 7.55933, -6.867, -0.0457764, 0.0610352, -0.0305176, 0, 0
136807113, 0.0221484, 0.0225586, 0.0145605, 0.0150732, 0.122319, 7.55199, -6.87434, -0.0915527, 0.0762939, -0.0305176, 0, 0
136807123, 0.0233789, 0.0263525, 0.0125098, 0.0150732, 0.0978554, 7.56177, -6.84988, -0.0915527, -0.0152588, -0.0305176, 0, 0
136807133, 0.0233789, 0.0259424, 0.0141504, 0.0141504, 0.11498, 7.55688, -6.85477, -0.0610352, 0.0305176, -0.0305176, 0, 0
136807143, 0.0241992, 0.0255322, 0.0116895, 0.0137402, 0.117426, 7.56667, -6.867, -0.0457764, 0.0152588, -0.0457764, 0, 0
136807163, 0.0259424, 0.0251221, 0.0141504, 0.0167139, 0.105195, 7.5471, -6.85721, -0.0610352, -0.0610352, 0.0152588, 0, 0
136807173, 0.0237891, 0.0247119, 0.0129199, 0.0167139, 0.110087, 7.56667, -6.84988, -0.137329, 0.0152588, 0.0152588, 0, 0
136807183, 0.0237891, 0.0267627, 0.0145605, 0.0179443, 0.110087, 7.53731, -6.86455, -0.0152588, -0.0457764, 0.0305176, 0, 0
136807193, 0.0229687, 0.0251221, 0.0145605, 0.0167139, 0.122319, 7.55199, -6.87189, -0.106812, -0.0305176, 0.0152588, 0, 0
136807203, 0.0229687, 0.0251221, 0.0145605, 0.0163037, 0.122319, 7.5422, -6.85232, -0.106812, -0.0762939, -0.0610352, 0, 0
136807213, 0.0237891, 0.0251221, 0.0141504, 0.0129199, 0.105195, 7.55688, -6.86945, -0.137329, 0.0152588, 0, 0, 0
136807223, 0.0247119, 0.0237891, 0.0137402, 0.0141504, 0.124766, 7.5471, -6.85477, -0.106812, 0, 0, 0, 0
136807233, 0.0247119, 0.0259424, 0.0150732, 0.0141504, 0.11498, 7.56667, -6.85477, -0.0762939, 0.0762939, 0, 0, 0
136807253, 0.0233789, 0.0237891, 0.0137402, 0.0145605, 0.117426, 7.56422, -6.86945, -0.0762939, -0.0152588, 0.0152588, 0, 0
136807263, 0.0241992, 0.0237891, 0.0137402, 0.0137402, 0.107641, 7.57401, -6.84498, -0.106812, -0.0457764, 0.0305176, 0, 0
136807273, 0.0237891, 0.0263525, 0.0145605, 0.0150732, 0.102748, 7.55933, -6.867, -0.0762939, -0.0305176, 0.0305176, 0, 0
136807283, 0.0237891, 0.0233789, 0.0145605, 0.0150732, 0.100302, 7.55933, -6.867, -0.152588, 0.0305176, 0.0305176, 0, 0
136807293, 0.0229687, 0.0251221, 0.0145605, 0.0137402, 0.105195, 7.56667, -6.86211, -0.0762939, -0.0152588, 0.0457764, 0, 0
136807303, 0.0241992, 0.0241992, 0.0154834, 0.0167139, 0.0978554, 7.56422, -6.86455, -0.183105, -0.0152588, 0.0152588, 0, 0
136807313, 0.0247119, 0.0241992, 0.0154834, 0.017124, 0.110087, 7.56667, -6.87679, -0.106812, 0.0915527, 0.0762939, 0, 0
136807333, 0.0241992, 0.027583, 0.0137402, 0.0133301, 0.119873, 7.56177, -6.85721, -0.0457764, -0.0305176, 0, 0, 0
136807343, 0.0241992, 0.0263525, 0.0145605, 0.0137402, 0.117426, 7.55688, -6.85721, -0.167847, -0.0457764, 0.0762939, 0, 0
136807353, 0.0247119, 0.0255322, 0.0133301, 0.0150732, 0.100302, 7.55199, -6.85966, -0.137329, 0, 0, 0, 0
136807363, 0.0229687, 0.0263525, 0.0133301, 0.0150732, 0.119873, 7.57645, -6.86455, -0.183105, 0.0762939, 0, 0, 0
136807373, 0.0251221, 0.0263525, 0.0141504, 0.0145605, 0.105195, 7.56667, -6.86455, -0.0762939, 0, -0.0305176, 0, 0
136807383, 0.0237891, 0.0247119, 0.0125098, 0.0145605, 0.110087, 7.56177, -6.86211, -0.12207, -0.0457764, 0.0305176, 0, 0
136807393, 0.0237891, 0.0255322, 0.0154834, 0.0137402, 0.0856234, 7.55199, -6.85721, -0.106812, 0.0152588, 0.0305176, 0, 0
136807403, 0.0229687, 0.0263525, 0.017124, 0.0163037, 0.102748, 7.56422, -6.87679, -0.0610352, 0.0762939, 0, 0, 0
136807423, 0.0237891, 0.0263525, 0.0150732, 0.0125098, 0.11498, 7.55933, -6.85477, -0.0915527, 0.0152588, -0.0305176, 0, 0
136807433, 0.0241992, 0.0267627, 0.0141504, 0.0150732, 0.105195, 7.57401, -6.84498, -0.183105, 0.0305176, 0.0152588, 0, 0
136807443, 0.0241992, 0.0247119, 0.0141504, 0.0150732, 0.105195, 7.53976, -6.85721, -0.0915527, -0.0152588, 0.0152588, 0, 0
136807453, 0.0251221, 0.0271729, 0.0145605, 0.0145605, 0.11498, 7.55443, -6.86945, -0.12207, -0.0457764, 0.0305176, 0, 0
136807463, 0.0233789, 0.0255322, 0.0129199, 0.0125098, 0.117426, 7.55933, -6.85721, -0.0305176, -0.0305176, -0.0762939, 0, 0
136807473, 0.0237891, 0.0255322, 0.0129199, 0.017124, 0.112534, 7.57401, -6.86455, -0.0610352, 0, -0.0305176, 0, 0
136807483, 0.0237891, 0.0251221, 0.0133301, 0.0158936, 0.112534, 7.56911, -6.86945, -0.106812, 0, -0.0152588, 0, 0
136807503, 0.0241992, 0.0233789, 0.0129199, 0.0120996, 0.110087, 7.54954, -6.86945, -0.183105, 0.0610352, 0.0152588, 0, 0
136807513, 0.0229687, 0.027583, 0.0129199, 0.0158936, 0.132105, 7.55688, -6.85232, -0.106812, 0.0305176, 0, 0, 0
136807523, 0.0255322, 0.027583, 0.0129199, 0.0141504, 0.11498, 7.56911, -6.85721, 0, 0.0152588, 0, 0, 0
136807533, 0.0247119, 0.0229687, 0.0116895, 0.0163037, 0.11498, 7.55933, -6.87189, -0.137329, -0.106812, 0, 0, 0
136807543, 0.0247119, 0.0255322, 0.0137402, 0.0163037, 0.107641, 7.56177, -6.87434, -0.137329, 0, -0.0152588, 0, 0
136807553, 0.0247119, 0.0241992, 0.0137402, 0.0141504, 0.122319, 7.56667, -6.86211, -0.0762939, 0.0152588, -0.0152588, 0, 0
136807563, 0.0251221, 0.0237891, 0.0145605, 0.0163037, 0.102748, 7.55199, -6.867, -0.12207, -0.0152588, 0.0762939, 0, 0
136807573, 0.0247119, 0.0237891, 0.0145605, 0.0150732, 0.117426, 7.57156, -6.88657, -0.106812, 0.106812, 0.0762939, 0, 0
136807593, 0.0225586, 0.0247119, 0.0145605, 0.0150732, 0.110087, 7.55443, -6.85477, -0.183105, -0.0457764, -0.0305176, 0, 0
136807603, 0.0225586, 0.0237891, 0.0125098, 0.0150732, 0.117426, 7.56911, -6.85966, -0.12207, -0.137329, -0.0305176, 0, 0
136807613, 0.0241992, 0.0259424, 0.0137402, 0.0150732, 0.11498, 7.54954, -6.84254, -0.106812, -0.0762939, -0.0152588, 0, 0
136807623, 0.0225586, 0.0259424, 0.0137402, 0.0167139, 0.119873, 7.54954, -6.867, -0.12207, 0, -0.0610352, 0, 0
136807633, 0.0237891, 0.0259424, 0.0133301, 0.0163037, 0.105195, 7.55443, -6.85232, -0.106812, -0.0457764, 0.0152588, 0, 0
136807643, 0.0247119, 0.0263525, 0.0129199, 0.0133301, 0.105195, 7.56667, -6.86455, -0.12207, -0.12207, -0.0762939, 0, 0
136807653, 0.0247119, 0.0255322, 0.0141504, 0.0133301, 0.105195, 7.56667, -6.85232, -0.0457764, 0.0152588, 0.0457764, 0, 0
136807673, 0.0233789, 0.0233789, 0.0133301, 0.0141504, 0.124766, 7.56177, -6.84009, -0.167847, 0.0610352, 0.0305176, 0, 0
136807683, 0.0259424, 0.0233789, 0.0133301, 0.0150732, 0.095409, 7.55933, -6.86211, -0.0915527, -0.0305176, 0.0305176, 0, 0
136807693, 0.0237891, 0.0241992, 0.0125098, 0.0145605, 0.11498, 7.55443, -6.867, -0.0457764, -0.0305176, -0.0762939, 0, 0
136807703, 0.0237891, 0.0271729, 0.0145605, 0.0145605, 0.105195, 7.55443, -6.85477, -0.106812, 0.0610352, 0.0152588, 0, 0
136807713, 0.0237891, 0.0251221, 0.0154834, 0.0133301, 0.102748, 7.55443, -6.85477, -0.137329, -0.0305176, -0.0457764, 0, 0
136807723, 0.0241992, 0.0263525, 0.0141504, 0.0141504, 0.102748, 7.56911, -6.87679, -0.0457764, -0.0610352, -0.0305176, 0, 0
136807733, 0.0233789, 0.0263525, 0.0141504, 0.0145605, 0.119873, 7.56422, -6.86211, -0.106812, -0.0610352, 0.0152588, 0, 0
136807743, 0.0229687, 0.0255322, 0.0129199, 0.0145605, 0.117426, 7.55443, -6.85721, -0.152588, 0.0152588, 0, 0, 0
136807763, 0.0233789, 0.0233789, 0.0158936, 0.0150732, 0.105195, 7.55933, -6.86455, -0.0305176, -0.0610352, 0, 0, 0
136807773, 0.0251221, 0.0259424, 0.0163037, 0.0154834, 0.107641, 7.56422, -6.867, -0.106812, -0.106812, 0, 0, 0
136807783, 0.0221484, 0.0259424, 0.0163037, 0.0133301, 0.0978554, 7.55688, -6.87189, -0.137329, -0.0152588, -0.0152588, 0, 0
136807793, 0.0233789, 0.0247119, 0.0133301, 0.0154834, 0.117426, 7.56177, -6.85477, -0.12207, 0.0152588, -0.0305176, 0, 0
136807803, 0.0271729, 0.0247119, 0.0129199, 0.0154834, 0.112534, 7.55443, -6.85721, -0.0610352, 0, 0, 0, 0
136807813, 0.0271729, 0.0279932, 0.0125098, 0.0158936, 0.119873, 7.55688, -6.84743, -0.0762939, 0.0457764, 0.0152588, 0, 0
136807823, 0.0237891, 0.0263525, 0.0150732, 0.0145605, 0.107641, 7.56422, -6.85721, -0.0610352, -0.0305176, -0.0152588, 0, 0
136807843, 0.0213281, 0.027583, 0.0125098, 0.0154834, 0.107641, 7.55199, -6.89391, -0.0610352, 0.0457764, -0.0152588, 0, 0
136807853, 0.0241992, 0.0241992, 0.0133301, 0.0150732, 0.127212, 7.55933, -6.84988, -0.152588, -0.0152588, -0.0152588, 0, 0
136807863, 0.0241992, 0.0247119, 0.0179443, 0.0150732, 0.107641, 7.56667, -6.867, -0.0762939, -0.0152588, -0.0305176, 0, 0
136807873, 0.0221484, 0.0241992, 0.0116895, 0.0145605, 0.105195, 7.54465, -6.85966, -0.0457764, -0.0152588, -0.0305176, 0, 0
136807883, 0.0237891, 0.0229687, 0.0116895, 0.0145605, 0.105195, 7.55688, -6.86455, -0.0457764, -0.0457764, -0.0152588, 0, 0
136807893, 0.0251221, 0.0229687, 0.0116895, 0.0154834, 0.110087, 7.55688, -6.85721, -0.0610352, -0.0610352, 0, 0, 0
136807903, 0.0237891, 0.0233789, 0.0116895, 0.0141504, 0.112534, 7.55443, -6.85966, -0.0915527, -0.0152588, 0.0610352, 0, 0
136807913, 0.0255322, 0.0255322, 0.0133301, 0.0141504, 0.112534, 7.56177, -6.85232, -0.167847, -0.0305176, 0.0762939, 0, 0
136807933, 0.0241992, 0.0237891, 0.0145605, 0.0167139, 0.11498, 7.55443, -6.85966, -0.0610352, -0.0152588, 0.0305176, 0, 0
136807943, 0.0213281, 0.0237891, 0.0145605, 0.0145605, 0.112534, 7.55688, -6.87434, -0.106812, 0.0457764, 0.0305176, 0, 0
136807953, 0.0247119, 0.0241992, 0.0141504, 0.0163037, 0.11498, 7.56422, -6.86211, -0.106812, -0.0305176, -0.0305176, 0, 0
136807963, 0.0255322, 0.0267627, 0.0154834, 0.0163037, 0.119873, 7.55933, -6.85232, -0.0915527, -0.0610352, -0.0457764, 0, 0
136807973, 0.0255322, 0.0259424, 0.0129199, 0.017124, 0.134551, 7.54954, -6.88412, -0.152588, -0.0152588, 0, 0, 0
136807983, 0.0247119, 0.0263525, 0.0120996, 0.0129199, 0.102748, 7.56177, -6.85966, -0.0762939, -0.106812, 0, 0, 0
136807993, 0.0247119, 0.0263525, 0.0120996, 0.0163037, 0.105195, 7.55933, -6.86455, -0.0610352, 0.0152588, -0.0152588, 0, 0
136808013, 0.0229687, 0.0255322, 0.0129199, 0.0158936, 0.112534, 7.54465, -6.86455, -0.152588, -0.0305176, -0.0152588, 0, 0
136808023, 0.0229687, 0.0263525, 0.0133301, 0.0154834, 0.107641, 7.54954, -6.86455, -0.106812, 0.0152588, 0.0305176, 0, 0
136808033, 0.0241992, 0.0255322, 0.017124, 0.0154834, 0.11498, 7.57401, -6.86211, -0.106812, 0.0762939, 0.0152588, 0, 0
136808043, 0.0241992, 0.0251221, 0.017124, 0.0158936, 0.117426, 7.56177, -6.867, 0, -0.0305176, 0, 0, 0
136808053, 0.0229687, 0.0251221, 0.0129199, 0.0141504, 0.117426, 7.55199, -6.85721, -0.0762939, -0.0457764, -0.0762939, 0, 0
136808063, 0.0229687, 0.0233789, 0.0150732, 0.0158936, 0.105195, 7.55443, -6.85477, -0.0915527, -0.0457764, 0.0457764, 0, 0
136808073, 0.0229687, 0.0255322, 0.0137402, 0.0158936, 0.119873, 7.56177, -6.85966, -0.0762939, 0.0152588, -0.0915527, 0, 0
136808083, 0.0229687, 0.0263525, 0.0145605, 0.0163037, 0.117426, 7.56911, -6.86455, -0.0457764, 0.0457764, -0.0457764, 0, 0
136808103, 0.0237891, 0.0259424, 0.0150732, 0.0163037, 0.105195, 7.55443, -6.86455, -0.0915527, 0.12207, 0.0610352, 0, 0
136808113, 0.0229687, 0.0267627, 0.0116895, 0.0150732, 0.107641, 7.55443, -6.87434, -0.0610352, 0.0152588, 0, 0, 0
136808123, 0.0241992, 0.0259424, 0.0158936, 0.0150732, 0.0978554, 7.55443, -6.867, -0.0762939, -0.0457764, 0.0457764, 0, 0
136808133, 0.0241992, 0.0259424, 0.0129199, 0.0150732, 0.105195, 7.55443, -6.86945, -0.0610352, 0.0457764, 0.0152588, 0, 0
136808143, 0.0233789, 0.0233789, 0.0145605, 0.0145605, 0.100302, 7.56422, -6.85232, -0.0915527, -0.0762939, -0.0152588, 0, 0
136808153, 0.0259424, 0.0233789, 0.0145605, 0.0137402, 0.110087, 7.56177, -6.86211, -0.0762939, 0.0152588, -0.0152588, 0, 0
136808163, 0.0251221, 0.0251221, 0.0141504, 0.0141504, 0.112534, 7.56911, -6.87923, -0.0457764, 0.0457764, 0.0762939, 0, 0
136808183, 0.0247119, 0.0241992, 0.0141504, 0.0129199, 0.107641, 7.56422, -6.87679, -0.106812, 0.0610352, -0.0152588, 0, 0
136808193, 0.0225586, 0.0247119, 0.0125098, 0.0137402, 0.117426, 7.55933, -6.86455, -0.12207, -0.0305176, -0.0305176, 0, 0
136808203, 0.0233789, 0.0247119, 0.0125098, 0.0137402, 0.100302, 7.55199, -6.867, -0.0457764, 0.0305176, -0.0457764, 0, 0
136808213, 0.0247119, 0.0263525, 0.0137402, 0.017124, 0.124766, 7.55933, -6.85477, -0.0762939, 0.0305176, 0.0305176, 0, 0
136808223, 0.0247119, 0.0267627, 0.0154834, 0.017124, 0.129658, 7.55933, -6.867, -0.106812, -0.0610352, 0, 0, 0
136808233, 0.0247119, 0.0288135, 0.0129199, 0.0150732, 0.117426, 7.56911, -6.867, -0.137329, 0.0305176, -0.0152588, 0, 0
136808243, 0.0259424, 0.0237891, 0.0154834, 0.0154834, 0.112534, 7.57401, -6.867, -0.167847, 0.0305176, 0.0305176, 0, 0
136808253, 0.0221484, 0.0251221, 0.0154834, 0.0137402, 0.105195, 7.55443, -6.86945, -0.0915527, -0.0457764, -0.0152588, 0, 0
136808273, 0.0221484, 0.0259424, 0.0133301, 0.0154834, 0.117426, 7.56667, -6.86945, -0.0457764, 0.0457764, -0.0305176, 0, 0
136808283, 0.0221484, 0.0247119, 0.0141504, 0.0154834, 0.11498, 7.56422, -6.85966, -0.0762939, 0.0457764, -0.0305176, 0, 0
136808293, 0.0241992, 0.0267627, 0.0137402, 0.0154834, 0.105195, 7.55933, -6.867, -0.152588, 0.0152588, -0.0305176, 0, 0
136808303, 0.0217383, 0.0247119, 0.0137402, 0.0150732, 0.102748, 7.56667, -6.85232, -0.0152588, -0.0457764, -0.0762939, 0, 0
136808313, 0.0255322, 0.0247119, 0.0137402, 0.0150732, 0.102748, 7.56422, -6.85966, -0.12207, 0.0305176, -0.0152588, 0, 0
136808323, 0.0217383, 0.0263525, 0.0137402, 0.0158936, 0.107641, 7.55688, -6.85721, -0.106812, -0.106812, -0.0152588, 0, 0
136808333, 0.0217383, 0.0229687, 0.0108691, 0.0158936, 0.110087, 7.56177, -6.86455, -0.12207, 0.0152588, -0.0915527, 0, 0
136808343, 0.0217383, 0.0229687, 0.010459, 0.0145605, 0.11498, 7.56911, -6.867, -0.0915527, -0.0152588, 0, 0, 0
136808363, 0.0247119, 0.0241992, 0.0137402, 0.0154834, 0.117426, 7.56177, -6.86945, -0.106812, 0, 0.0152588, 0, 0
136808373, 0.0251221, 0.0255322, 0.0154834, 0.0125098, 0.102748, 7.55688, -6.84988, -0.12207, -0.0305176, 0.0305176, 0, 0
136808383, 0.0213281, 0.0233789, 0.0145605, 0.0125098, 0.107641, 7.56177, -6.867, -0.137329, 0, 0, 0, 0
136808393, 0.0213281, 0.0237891, 0.0154834, 0.0167139, 0.110087, 7.55933, -6.86211, -0.0915527, 0.0152588, 0.0305176, 0, 0
136808403, 0.0229687, 0.0233789, 0.0158936, 0.0167139, 0.107641, 7.56177, -6.84988, -0.0915527, -0.0610352, 0.0457764, 0, 0
136808413, 0.0233789, 0.0233789, 0.0158936, 0.0141504, 0.122319, 7.57156, -6.85966, -0.0610352, -0.0610352, 0, 0, 0
136808423, 0.0237891, 0.0255322, 0.0150732, 0.0150732, 0.107641, 7.56422, -6.86211, -0.0915527, -0.0305176, 0, 0, 0
136808443, 0.0233789, 0.0251221, 0.0141504, 0.0154834, 0.110087, 7.56177, -6.86455, -0.106812, 0.0610352, -0.0610352, 0, 0
136808453, 0.0267627, 0.0259424, 0.0141504, 0.0141504, 0.117426, 7.57401, -6.86455, -0.0762939, -0.0305176, -0.0457764, 0, 0
136808463, 0.0241992, 0.0259424, 0.0141504, 0.0154834, 0.117426, 7.55688, -6.86211, -0.0762939, 0.0610352, -0.0152588, 0, 0
136808473, 0.0255322, 0.0271729, 0.0137402, 0.0141504, 0.119873, 7.55199, -6.85232, -0.0762939, 0.0152588, 0, 0, 0
136808483, 0.0247119, 0.0271729, 0.0129199, 0.0141504, 0.112534, 7.56177, -6.85477, -0.12207, 0.0610352, 0, 0, 0
136808493, 0.0255322, 0.0263525, 0.0116895, 0.0141504, 0.110087, 7.56422, -6.85477, -0.106812, -0.0457764, -0.0457764, 0, 0
136808503, 0.0255322, 0.0247119, 0.0133301, 0.0154834, 0.122319, 7.56667, -6.867, -0.0457764, -0.0457764, 0, 0, 0
136808513, 0.0233789, 0.0251221, 0.0133301, 0.0141504, 0.110087, 7.54954, -6.867, -0.137329, -0.0610352, 0, 0, 0
136808533, 0.0247119, 0.0267627, 0.0125098, 0.0163037, 0.117426, 7.56177, -6.86945, -0.0762939, -0.0457764, -0.0457764, 0, 0
136808543, 0.0225586, 0.0241992, 0.0145605, 0.0163037, 0.0978554, 7.56911, -6.85966, -0.0915527, 0.0610352, -0.0152588, 0, 0
136808553, 0.0225586, 0.0279932, 0.0133301, 0.0120996, 0.119873, 7.56422, -6.87189, -0.0915527, 0.0152588, -0.0457764, 0, 0
136808563, 0.0247119, 0.0255322, 0.0125098, 0.0154834, 0.119873, 7.56422, -6.867, -0.0915527, 0.0152588, -0.0305176, 0, 0
136808573, 0.0229687, 0.0255322, 0.0125098, 0.0150732, 0.105195, 7.57401, -6.86211, -0.0762939, -0.0457764, -0.0152588, 0, 0
136808583, 0.0255322, 0.0251221, 0.0150732, 0.0163037, 0.112534, 7.56911, -6.84009, -0.12207, 0.0152588, -0.0762939, 0, 0
136808593, 0.0251221, 0.0251221, 0.0150732, 0.0163037, 0.11498, 7.56667, -6.84988, -0.106812, -0.0610352, -0.0305176, 0, 0
136808613, 0.0233789, 0.0233789, 0.0141504, 0.0163037, 0.105195, 7.54954, -6.86211, -0.106812, 0.0457764, -0.0305176, 0, 0
136808623, 0.0229687, 0.0233789, 0.0141504, 0.0141504, 0.105195, 7.56177, -6.86455, -0.106812, 0.0457764, -0.0152588, 0, 0
136808633, 0.0233789, 0.0247119, 0.0145605, 0.017124, 0.127212, 7.57645, -6.87189, -0.106812, 0.0152588, 0.0152588, 0, 0
136808643, 0.0213281, 0.0271729, 0.0150732, 0.017124, 0.119873, 7.57156, -6.85966, -0.0762939, -0.0457764, -0.0457764, 0, 0
136808653, 0.0213281, 0.0241992, 0.0154834, 0.0175342, 0.112534, 7.5789, -6.85966, -0.0152588, 0.0457764, -0.0152588, 0, 0
136808663, 0.0233789, 0.0247119, 0.0116895, 0.0141504, 0.119873, 7.57156, -6.86455, -0.0457764, 0.0152588, 0.0305176, 0, 0
136808673, 0.0251221, 0.0247119, 0.0116895, 0.0137402, 0.102748, 7.56911, -6.85966, -0.167847, 0.0152588, 0.0457764, 0, 0
136808683, 0.0233789, 0.0267627, 0.0120996, 0.0154834, 0.100302, 7.56177, -6.84743, -0.106812, 0.0152588, 0, 0, 0
136808703, 0.0247119, 0.0229687, 0.0108691, 0.0154834, 0.117426, 7.55443, -6.867, -0.106812, -0.0305176, 0.0305176, 0, 0
136808713, 0.0247119, 0.0241992, 0.0163037, 0.0163037, 0.107641, 7.56177, -6.86211, -0.12207, 0.0915527, 0.0457764, 0, 0
136808723, 0.0233789, 0.0237891, 0.0163037, 0.0163037, 0.11498, 7.54954, -6.86455, -0.152588, -0.0457764, 0, 0, 0
136808733, 0.0205078, 0.0237891, 0.0137402, 0.0150732, 0.11498, 7.55443, -6.85966, -0.0762939, -0.0457764, 0, 0, 0
136808743, 0.0229687, 0.0237891, 0.0141504, 0.0141504, 0.112534, 7.56667, -6.86211, -0.0915527, 0.0305176, -0.0305176, 0, 0
136808753, 0.0229687, 0.0259424, 0.0133301, 0.0141504, 0.117426, 7.55199, -6.86945, -0.106812, 0.0152588, -0.0610352, 0, 0
136808763, 0.0229687, 0.0251221, 0.0145605, 0.0137402, 0.122319, 7.55933, -6.87434, -0.137329, -0.0152588, -0.0152588, 0, 0
136808783, 0.0217383, 0.0267627, 0.0141504, 0.0158936, 0.095409, 7.56177, -6.87923, -0.106812, -0.0915527, 0, 0, 0
136808793, 0.0229687, 0.0271729, 0.0116895, 0.0150732, 0.112534, 7.56177, -6.85721, -0.0152588, -0.0152588, 0.0152588, 0, 0
136808803, 0.0237891, 0.0288135, 0.0145605, 0.0150732, 0.110087, 7.56177, -6.85477, -0.0610352, 0.0305176, 0.0457764, 0, 0
136808813, 0.0237891, 0.0255322, 0.0154834, 0.017124, 0.105195, 7.56422, -6.87189, -0.106812, 0.0457764, 0.0305176, 0, 0
136808823, 0.0247119, 0.0221484, 0.0154834, 0.0154834, 0.119873, 7.56422, -6.87679, -0.0915527, -0.0457764, -0.0152588, 0, 0
136808833, 0.0221484, 0.0221484, 0.0154834, 0.0120996, 0.100302, 7.55688, -6.85721, -0.12207, -0.0305176, -0.0305176, 0, 0
136808843, 0.0221484, 0.0247119, 0.0133301, 0.0137402, 0.100302, 7.56422, -6.86945, -0.0610352, -0.0152588, -0.0152588, 0, 0
136808853, 0.0271729, 0.0241992, 0.0145605, 0.0137402, 0.0978554, 7.55933, -6.85721, -0.0457764, 0.0305176, 0.0152588, 0, 0
136808873, 0.0279932, 0.0251221, 0.0145605, 0.0163037, 0.11498, 7.56911, -6.86211, -0.12207, -0.0610352, 0.0152588, 0, 0
136808883, 0.0247119, 0.0251221, 0.0145605, 0.0141504, 0.11498, 7.56177, -6.85721, -0.0457764, -0.0305176, -0.0152588, 0, 0
136808893, 0.0229687, 0.0251221, 0.0133301, 0.0150732, 0.122319, 7.55199, -6.85966, -0.0610352, -0.0457764, 0, 0, 0
136808903, 0.0237891, 0.0251221, 0.0141504, 0.0150732, 0.112534, 7.5471, -6.867, -0.0915527, 0.0762939, -0.0152588, 0, 0
136808913, 0.0255322, 0.0255322, 0.0137402, 0.017124, 0.100302, 7.54954, -6.86945, -0.0915527, -0.0305176, -0.0762939, 0, 0
136808923, 0.0255322, 0.0259424, 0.0154834, 0.0183545, 0.102748, 7.54954, -6.87434, -0.12207, 0.0152588, -0.0457764, 0, 0
136808933, 0.0267627, 0.0237891, 0.0154834, 0.0158936, 0.11498, 7.56177, -6.867, -0.137329, -0.0457764, -0.0305176, 0, 0
136808953, 0.0229687, 0.0237891, 0.0120996, 0.017124, 0.117426, 7.54954, -6.867, -0.0305176, 0, -0.0152588, 0, 0
136808963, 0.0233789, 0.0259424, 0.0120996, 0.017124, 0.122319, 7.55199, -6.85721, -0.0457764, -0.0152588, 0, 0, 0
136808973, 0.0233789, 0.0247119, 0.0145605, 0.0154834, 0.119873, 7.55443, -6.87679, -0.0915527, -0.0457764, 0, 0, 0
136808983, 0.0247119, 0.0241992, 0.0145605, 0.0154834, 0.11498, 7.55933, -6.84743, -0.183105, 0.0152588, 0.0152588, 0, 0
136808993, 0.0233789, 0.0241992, 0.0145605, 0.0137402, 0.11498, 7.56177, -6.87434, -0.137329, 0.106812, -0.0152588, 0, 0
136809003, 0.0229687, 0.0267627, 0.0154834, 0.0145605, 0.107641, 7.55199, -6.84743, -0.12207, 0.0152588, -0.0305176, 0, 0
136809013, 0.0225586, 0.0241992, 0.0145605, 0.0145605, 0.112534, 7.55443, -6.86455, -0.106812, 0.0305176, 0.0457764, 0, 0
136809023, 0.0225586, 0.0255322, 0.0125098, 0.0158936, 0.107641, 7.56667, -6.85721, -0.0457764, 0.0305176, -0.0457764, 0, 0
136809043, 0.0237891, 0.0241992, 0.0141504, 0.0145605, 0.11498, 7.55443, -6.84498, -0.0762939, -0.0457764, 0.0152588, 0, 0
136809053, 0.0221484, 0.0237891, 0.0133301, 0.0158936, 0.107641, 7.55199, -6.85966, -0.0915527, 0, 0, 0, 0
136809063, 0.0255322, 0.0259424, 0.0112793, 0.0158936, 0.110087, 7.55933, -6.86455, -0.0610352, 0, 0.0152588, 0, 0
136809073, 0.0255322, 0.0247119, 0.0133301, 0.0145605, 0.112534, 7.56667, -6.86211, -0.0915527, -0.0152588, 0.0457764, 0, 0
136809083, 0.0233789, 0.0263525, 0.0129199, 0.0163037, 0.107641, 7.57645, -6.85966, -0.12207, -0.0610352, -0.0457764, 0, 0
136809093, 0.0213281, 0.0263525, 0.0129199, 0.0129199, 0.117426, 7.56911, -6.86211, -0.0762939, 0, -0.0152588, 0, 0
136809103, 0.0225586, 0.0251221, 0.0137402, 0.0158936, 0.100302, 7.57156, -6.87434, -0.0305176, 0.0762939, -0.137329, 0, 0
136809123, 0.0225586, 0.0259424, 0.0154834, 0.0163037, 0.107641, 7.57401, -6.87189, -0.137329, 0.0457764, -0.0457764, 0, 0
136809133, 0.0225586, 0.0259424, 0.0129199, 0.0150732, 0.107641, 7.56177, -6.85477, -0.0610352, -0.0610352, 0.0457764, 0, 0
136809143, 0.0241992, 0.0259424, 0.0129199, 0.0163037, 0.107641, 7.55933, -6.86455, -0.0915527, -0.0610352, 0.0305176, 0, 0
136809153, 0.0233789, 0.0251221, 0.0150732, 0.0120996, 0.105195, 7.54954, -6.85721, -0.0610352, 0.0457764, 0.0762939, 0, 0
136809163, 0.0229687, 0.0255322, 0.0129199, 0.0167139, 0.110087, 7.54954, -6.867, -0.106812, 0.0152588, 0.0457764, 0, 0
136809173, 0.0255322, 0.027583, 0.0154834, 0.0167139, 0.105195, 7.58134, -6.86455, -0.0610352, 0.0152588, -0.0305176, 0, 0
136809183, 0.0255322, 0.0241992, 0.0129199, 0.0137402, 0.124766, 7.56911, -6.85477, -0.0152588, -0.0457764, 0.0457764, 0, 0
136809193, 0.0263525, 0.0247119, 0.0141504, 0.0141504, 0.107641, 7.56667, -6.85721, -0.0457764, -0.0152588, 0.0305176, 0, 0
136809213, 0.0237891, 0.0263525, 0.0158936, 0.0129199, 0.117426, 7.56667, -6.86945, -0.0457764, 0.0457764, -0.0457764, 0, 0
136809223, 0.0229687, 0.0271729, 0.0145605, 0.0129199, 0.112534, 7.56422, -6.85721, -0.0915527, -0.0305176, 0, 0, 0
136809233, 0.0229687, 0.0241992, 0.0129199, 0.0158936, 0.100302, 7.5471, -6.85721, -0.167847, 0.0152588, -0.0610352, 0, 0
136809243, 0.0241992, 0.0233789, 0.0120996, 0.0167139, 0.122319, 7.56177, -6.85966, -0.0762939, -0.0457764, -0.0152588, 0, 0
136809253, 0.0241992, 0.0233789, 0.0120996, 0.0179443, 0.11498, 7.55443, -6.85477, -0.0915527, -0.0762939, 0.0457764, 0, 0
136809263, 0.0251221, 0.0259424, 0.0120996, 0.0137402, 0.11498, 7.55199, -6.87434, -0.198364, -0.0457764, 0.0305176, 0, 0
136809273, 0.0237891, 0.0237891, 0.0145605, 0.0137402, 0.107641, 7.57401, -6.85477, -0.12207, 0.0305176, 0.0152588, 0, 0
136809293, 0.0225586, 0.0251221, 0.0129199, 0.0145605, 0.112534, 7.57156, -6.86945, 0, 0.0152588, 0.0457764, 0, 0
136809303, 0.0237891, 0.0251221, 0.0129199, 0.0167139, 0.112534, 7.56177, -6.87923, -0.137329, 0, 0, 0, 0
136809313, 0.0255322, 0.0251221, 0.0141504, 0.0154834, 0.0978554, 7.55443, -6.867, -0.12207, 0, -0.0305176, 0, 0
136809323, 0.0229687, 0.0237891, 0.0112793, 0.0154834, 0.110087, 7.57156, -6.867, -0.106812, 0.0305176, 0.0152588, 0, 0
136809333, 0.0271729, 0.0237891, 0.0137402, 0.0137402, 0.119873, 7.54954, -6.85721, -0.0610352, -0.0305176, 0, 0, 0
136809343, 0.0271729, 0.0255322, 0.0129199, 0.0167139, 0.107641, 7.54954, -6.86945, -0.0305176, 0.0762939, 0.0152588, 0, 0
136809353, 0.0241992, 0.0255322, 0.0129199, 0.0167139, 0.11498, 7.56422, -6.86211, -0.137329, 0.0152588, -0.0457764, 0, 0
136809363, 0.0251221, 0.0267627, 0.0150732, 0.0158936, 0.122319, 7.56667, -6.85477, -0.0457764, -0.0610352, -0.0152588, 0, 0
136809383, 0.0221484, 0.0267627, 0.0145605, 0.0141504, 0.105195, 7.57401, -6.87189, -0.12207, 0.0457764, 0, 0, 0
136809393, 0.0221484, 0.0251221, 0.0133301, 0.0158936, 0.102748, 7.56667, -6.85477, -0.106812, -0.0457764, 0, 0, 0
136809403, 0.0263525, 0.0263525, 0.0129199, 0.0154834, 0.112534, 7.55688, -6.86455, -0.183105, -0.12207, -0.0305176, 0, 0
136809413, 0.0247119, 0.0263525, 0.0129199, 0.0150732, 0.110087, 7.55688, -6.86211, -0.12207, -0.0152588, 0.0152588, 0, 0
136809423, 0.0233789, 0.0247119, 0.0129199, 0.0145605, 0.110087, 7.55199, -6.86211, -0.12207, 0, 0.0152588, 0, 0
136809433, 0.0247119, 0.0241992, 0.0129199, 0.0145605, 0.11498, 7.55443, -6.86455, -0.0610352, 0.0152588, -0.0457764, 0, 0
136809443, 0.0247119, 0.020918, 0.0137402, 0.0158936, 0.110087, 7.56177, -6.84988, -0.106812, 0.0152588, -0.0305176, 0, 0
136809463, 0.0251221, 0.0259424, 0.0145605, 0.0150732, 0.107641, 7.55688, -6.85232, -0.12207, 0, -0.0152588, 0, 0
136809473, 0.0241992, 0.0251221, 0.0150732, 0.0163037, 0.107641, 7.56177, -6.87434, -0.137329, 0.0152588, 0, 0, 0
136809483, 0.0233789, 0.0263525, 0.0163037, 0.0163037, 0.119873, 7.55199, -6.867, -0.12207, -0.0610352, -0.0152588, 0, 0
136809493, 0.0241992, 0.0259424, 0.0137402, 0.0137402, 0.107641, 7.55199, -6.867, -0.12207, 0.0152588, 0.0152588, 0, 0
136809503, 0.0241992, 0.0251221, 0.0141504, 0.0158936, 0.122319, 7.55933, -6.87189, -0.0915527, -0.0152588, -0.0610352, 0, 0
136809513, 0.0259424, 0.0251221, 0.0141504, 0.0158936, 0.107641, 7.55443, -6.86455, -0.0610352, -0.0152588, -0.0610352, 0, 0
136809523, 0.0233789, 0.0251221, 0.0145605, 0.0141504, 0.0905162, 7.55443, -6.86455, -0.106812, 0.0610352, 0, 0, 0
136809533, 0.0237891, 0.0263525, 0.0141504, 0.0141504, 0.110087, 7.56667, -6.87434, -0.0915527, -0.0305176, 0, 0, 0
136809553, 0.0251221, 0.0237891, 0.0141504, 0.0112793, 0.11498, 7.56422, -6.86211, -0.183105, -0.0915527, -0.0152588, 0, 0
136809563, 0.0233789, 0.0237891, 0.0141504, 0.0129199, 0.105195, 7.55199, -6.86211, -0.12207, 0.0305176, -0.0610352, 0, 0
136809573, 0.0241992, 0.0263525, 0.0125098, 0.0141504, 0.095409, 7.56177, -6.86211, -0.137329, 0, 0.0152588, 0, 0
136809583, 0.0229687, 0.0267627, 0.0133301, 0.0163037, 0.11498, 7.56667, -6.85721, -0.0762939, 0, -0.0152588, 0, 0
136809593, 0.0233789, 0.0267627, 0.0141504, 0.0163037, 0.117426, 7.56177, -6.85477, -0.106812, 0, 0, 0, 0
136809603, 0.0233789, 0.0255322, 0.0125098, 0.0158936, 0.11498, 7.56911, -6.85477, -0.0762939, -0.0152588, 0.0305176, 0, 0
136809613, 0.0237891, 0.0237891, 0.0141504, 0.017124, 0.110087, 7.56422, -6.85966, -0.0762939, 0, 0.0305176, 0, 0
136809633, 0.0241992, 0.0255322, 0.0116895, 0.0145605, 0.105195, 7.56177, -6.87679, -0.0305176, -0.137329, -0.0305176, 0, 0
136809643, 0.0251221, 0.0251221, 0.0150732, 0.0145605, 0.112534, 7.56911, -6.86211, -0.0457764, -0.0152588, -0.0305176, 0, 0
136809653, 0.0251221, 0.0259424, 0.010459, 0.0141504, 0.112534, 7.55933, -6.85966, -0.106812, -0.0152588, 0.0152588, 0, 0
136809663, 0.0251221, 0.0271729, 0.0129199, 0.0158936, 0.100302, 7.55933, -6.867, -0.167847, -0.0305176, 0.0305176, 0, 0
136809673, 0.0229687, 0.0271729, 0.0129199, 0.0179443, 0.110087, 7.55933, -6.85232, -0.106812, -0.0305176, -0.0152588, 0, 0
136809683, 0.0251221, 0.0263525, 0.0163037, 0.0158936, 0.100302, 7.55933, -6.87434, -0.0610352, -0.0305176, -0.0152588, 0, 0
136809693, 0.0247119, 0.0263525, 0.0137402, 0.0158936, 0.11498, 7.55933, -6.86455, -0.106812, -0.0152588, -0.0152588, 0, 0
136809703, 0.0229687, 0.0259424, 0.0125098, 0.0183545, 0.11498, 7.5471, -6.85721, -0.152588, -0.0152588, 0.0457764, 0, 0
136809723, 0.0255322, 0.0263525, 0.0158936, 0.0150732, 0.122319, 7.57156, -6.86455, -0.0762939, -0.0610352, 0, 0, 0
136809733, 0.0241992, 0.0247119, 0.0150732, 0.0158936, 0.102748, 7.55688, -6.85477, 0.0152588, 0.0457764, 0, 0, 0
136809743, 0.0237891, 0.0263525, 0.0133301, 0.0158936, 0.124766, 7.55933, -6.85966, -0.0915527, 0, 0.0305176, 0, 0
136809753, 0.0237891, 0.0263525, 0.0116895, 0.0133301, 0.122319, 7.56911, -6.85721, -0.0915527, -0.0305176, -0.0152588, 0, 0
136809763, 0.0237891, 0.0255322, 0.010459, 0.0158936, 0.110087, 7.56911, -6.86211, -0.0457764, 0.0152588, 0, 0, 0
136809773, 0.0237891, 0.0255322, 0.010459, 0.0158936, 0.107641, 7.56177, -6.85966, -0.0762939, -0.106812, 0.0305176, 0, 0
136809783, 0.0233789, 0.0255322, 0.0150732, 0.0163037, 0.110087, 7.58134, -6.85966, -0.137329, 0, -0.0152588, 0, 0
136809793, 0.0251221, 0.0241992, 0.0133301, 0.0137402, 0.117426, 7.57401, -6.84743, -0.0915527, 0.0457764, 0, 0, 0
136809813, 0.0229687, 0.0221484, 0.0150732, 0.0183545, 0.11498, 7.55933, -6.867, -0.0152588, -0.0305176, -0.0152588, 0, 0
136809823, 0.0247119, 0.0271729, 0.0133301, 0.0154834, 0.11498, 7.5789, -6.86945, -0.106812, -0.12207, -0.0152588, 0, 0
136809833, 0.0237891, 0.0271729, 0.0133301, 0.0167139, 0.105195, 7.56177, -6.88657, -0.0152588, -0.0457764, 0, 0, 0
136809843, 0.0229687, 0.0247119, 0.0141504, 0.0141504, 0.107641, 7.57401, -6.85966, -0.0915527, -0.0457764, 0, 0, 0
136809853, 0.0237891, 0.0241992, 0.0145605, 0.0141504, 0.112534, 7.56911, -6.867, -0.0762939, 0.0152588, 0.0152588, 0, 0
136809863, 0.0237891, 0.0233789, 0.0129199, 0.0133301, 0.110087, 7.56667, -6.85232, -0.137329, -0.0152588, -0.0152588, 0, 0
136809873, 0.0229687, 0.0237891, 0.0141504, 0.0154834, 0.100302, 7.55443, -6.86945, -0.12207, -0.12207, 0.0305176, 0, 0
136809893, 0.0251221, 0.0251221, 0.0150732, 0.0154834, 0.127212, 7.57645, -6.86945, -0.0610352, -0.0305176, 0.0152588, 0, 0
136809903, 0.0247119, 0.0267627, 0.0141504, 0.0154834, 0.11498, 7.55688, -6.86455, -0.137329, -0.0915527, 0.0305176, 0, 0
136809913, 0.0259424, 0.0263525, 0.0150732, 0.0158936, 0.122319, 7.56177, -6.85966, -0.0762939, 0, 0.0152588, 0, 0
136809923, 0.0259424, 0.0247119, 0.017124, 0.0125098, 0.107641, 7.55688, -6.85232, -0.12207, 0.106812, 0.0152588, 0, 0
136809933, 0.0255322, 0.0247119, 0.017124, 0.0158936, 0.095409, 7.56422, -6.85721, -0.0610352, -0.0457764, 0.0152588, 0, 0
136809943, 0.0237891, 0.0279932, 0.0154834, 0.0158936, 0.110087, 7.55933, -6.867, -0.0915527, -0.0152588, 0, 0, 0
136809953, 0.0255322, 0.0267627, 0.0137402, 0.0158936, 0.112534, 7.55688, -6.85232, -0.0762939, -0.0305176, -0.0610352, 0, 0
136809963, 0.0247119, 0.0251221, 0.0163037, 0.0145605, 0.124766, 7.56911, -6.84743, -0.152588, -0.0610352, 0, 0, 0
136809983, 0.0255322, 0.0259424, 0.0154834, 0.0158936, 0.117426, 7.56667, -6.83275, -0.0915527, 0.0152588, 0, 0, 0
136809993, 0.0241992, 0.0259424, 0.0129199, 0.00953613, 0.127212, 7.57156, -6.86455, -0.106812, 0, -0.0610352, 0, 0
136810003, 0.0241992, 0.0237891, 0.0133301, 0.0150732, 0.117426, 7.55443, -6.85966, -0.167847, 0.0915527, 0, 0, 0
136810013, 0.0229687, 0.0263525, 0.0133301, 0.0150732, 0.110087, 7.56422, -6.85232, -0.0457764, -0.0305176, -0.0305176, 0, 0
136810023, 0.0229687, 0.0259424, 0.0137402, 0.0145605, 0.105195, 7.55933, -6.85966, -0.137329, -0.0152588, -0.0305176, 0, 0
136810033, 0.0251221, 0.0259424, 0.0129199, 0.0158936, 0.122319, 7.5471, -6.86455, 0.0457764, 0.0305176, -0.0915527, 0, 0
136810043, 0.0247119, 0.027583, 0.0129199, 0.0145605, 0.124766, 7.55933, -6.87189, -0.0762939, 0.0305176, 0, 0, 0
136810063, 0.0251221, 0.0241992, 0.0150732, 0.0158936, 0.110087, 7.5471, -6.86455, -0.0762939, -0.0305176, -0.0915527, 0, 0
136810073, 0.0229687, 0.0259424, 0.0150732, 0.0163037, 0.11498, 7.55933, -6.85721, -0.106812, -0.0457764, 0.0305176, 0, 0
136810083, 0.0229687, 0.0255322, 0.0154834, 0.0158936, 0.105195, 7.55443, -6.86211, -0.183105, -0.0305176, 0.0457764, 0, 0
136810093, 0.0225586, 0.0255322, 0.0154834, 0.0167139, 0.119873, 7.55688, -6.86455, -0.0152588, 0.0457764, -0.0610352, 0, 0
136810103, 0.0229687, 0.0259424, 0.0125098, 0.0163037, 0.112534, 7.56422, -6.85477, -0.0305176, -0.0305176, -0.0152588, 0, 0
136810113, 0.0217383, 0.0251221, 0.0154834, 0.0163037, 0.095409, 7.56177, -6.86455, -0.152588, -0.0762939, -0.0152588, 0, 0
136810123, 0.0221484, 0.0241992, 0.0137402, 0.0167139, 0.119873, 7.55933, -6.84988, -0.106812, 0.0305176, 0.0457764, 0, 0
136810133, 0.0221484, 0.0229687, 0.0150732, 0.0158936, 0.107641, 7.56177, -6.86455, -0.0610352, 0.0152588, -0.0457764, 0, 0
136810153, 0.0241992, 0.027583, 0.0120996, 0.0163037, 0.112534, 7.56422, -6.87189, -0.0457764, 0.0305176, 0.0152588, 0, 0
136810163, 0.0247119, 0.0251221, 0.017124, 0.0163037, 0.102748, 7.56177, -6.87189, -0.152588, -0.0152588, 0, 0, 0
136810173, 0.0237891, 0.0247119, 0.0125098, 0.0145605, 0.112534, 7.55688, -6.86455, -0.106812, -0.0152588, 0.0305176, 0, 0
136810183, 0.0237891, 0.0279932, 0.0137402, 0.0150732, 0.117426, 7.56911, -6.85232, -0.12207, 0.0457764, -0.0610352, 0, 0
136810193, 0.0229687, 0.0279932, 0.0137402, 0.0150732, 0.124766, 7.55199, -6.85721, -0.137329, -0.0152588, -0.0457764, 0, 0
136810203, 0.0241992, 0.0247119, 0.0137402, 0.0141504, 0.112534, 7.56177, -6.85721, -0.0915527, -0.0610352, 0.0152588, 0, 0
136810213, 0.0247119, 0.0247119, 0.0163037, 0.017124, 0.124766, 7.57401, -6.87189, -0.0762939, 0, 0.0457764, 0, 0
136810233, 0.0229687, 0.0221484, 0.0137402, 0.0163037, 0.110087, 7.56422, -6.86211, -0.0610352, 0.0915527, 0.0305176, 0, 0
136810243, 0.0241992, 0.0221484, 0.0137402, 0.0163037, 0.112534, 7.54954, -6.867, -0.0610352, -0.0152588, 0.0305176, 0, 0
136810253, 0.0247119, 0.0251221, 0.0137402, 0.0167139, 0.105195, 7.56422, -6.86211, -0.0610352, 0.0305176, 0.0152588, 0, 0
136810263, 0.0241992, 0.027583, 0.0129199, 0.0145605, 0.129658, 7.55443, -6.84498, -0.106812, 0.0152588, 0.0152588, 0, 0
136810273, 0.0247119, 0.0255322, 0.0125098, 0.0145605, 0.11498, 7.56911, -6.84988, -0.137329, 0.0152588, -0.0305176, 0, 0
136810283, 0.0241992, 0.0251221, 0.0150732, 0.0141504, 0.095409, 7.57156, -6.86211, -0.12207, -0.0305176, -0.0457764, 0, 0
136810293, 0.0241992, 0.0247119, 0.0154834, 0.0154834, 0.107641, 7.55933, -6.85721, -0.0610352, 0.0305176, 0, 0, 0
136810303, 0.0241992, 0.0247119, 0.0154834, 0.0145605, 0.105195, 7.55933, -6.84743, -0.0915527, 0.0457764, -0.0457764, 0, 0
136810323, 0.0251221, 0.0251221, 0.0141504, 0.0129199, 0.117426, 7.54954, -6.84743, -0.0915527, -0.0610352, 0.0152588, 0, 0
136810333, 0.0251221, 0.0237891, 0.0129199, 0.0163037, 0.100302, 7.57401, -6.867, -0.12207, -0.0152588, -0.0305176, 0, 0
136810343, 0.0251221, 0.0267627, 0.0129199, 0.0150732, 0.119873, 7.56177, -6.88168, -0.152588, -0.0457764, 0.0152588, 0, 0
136810353, 0.0251221, 0.0267627, 0.0129199, 0.0133301, 0.122319, 7.54465, -6.85966, -0.0305176, -0.0152588, -0.0610352, 0, 0
136810363, 0.0237891, 0.0263525, 0.0137402, 0.0167139, 0.102748, 7.55443, -6.86945, -0.152588, 0, 0.0457764, 0, 0
136810373, 0.0255322, 0.0229687, 0.0137402, 0.0167139, 0.117426, 7.56422, -6.85966, -0.0305176, -0.0152588, 0, 0, 0
136810383, 0.0241992, 0.0233789, 0.0133301, 0.0158936, 0.112534, 7.56422, -6.86945, -0.106812, 0.0457764, -0.0457764, 0, 0
136810403, 0.0229687, 0.0259424, 0.0141504, 0.0145605, 0.110087, 7.55933, -6.85477, -0.106812, 0.0305176, -0.0457764, 0, 0
136810413, 0.0225586, 0.0241992, 0.0141504, 0.0150732, 0.112534, 7.57401, -6.86211, -0.0457764, -0.0152588, -0.0152588, 0, 0
136810423, 0.0241992, 0.0279932, 0.0145605, 0.017124, 0.110087, 7.57156, -6.86455, -0.0610352, 0.0152588, -0.0457764, 0, 0
136810433, 0.0237891, 0.0259424, 0.0141504, 0.017124, 0.095409, 7.56911, -6.85966, -0.0762939, 0.0305176, 0, 0, 0
136810443, 0.0237891, 0.0241992, 0.0141504, 0.0145605, 0.11498, 7.53976, -6.87923, -0.12207, 0, -0.0152588, 0, 0
136810453, 0.0263525, 0.0241992, 0.0133301, 0.0167139, 0.105195, 7.56667, -6.86945, -0.167847, 0.0610352, 0.0152588, 0, 0
136810463, 0.0237891, 0.0251221, 0.0133301, 0.0154834, 0.105195, 7.56422, -6.84988, -0.137329, 0.0152588, -0.0305176, 0, 0
136810473, 0.0221484, 0.0247119, 0.0150732, 0.0141504, 0.112534, 7.56177, -6.85966, -0.152588, -0.0457764, 0, 0, 0
136810493, 0.0251221, 0.0263525, 0.0133301, 0.0158936, 0.102748, 7.55933, -6.867, -0.0915527, 0.0305176, -0.0305176, 0, 0
136810503, 0.0251221, 0.0247119, 0.0129199, 0.0141504, 0.122319, 7.57401, -6.86945, -0.12207, 0.0152588, -0.0457764, 0, 0
136810513, 0.0237891, 0.0247119, 0.0129199, 0.0158936, 0.105195, 7.56177, -6.84988, -0.0915527, -0.0610352, 0, 0, 0
136810523, 0.0233789, 0.0288135, 0.0137402, 0.0163037, 0.117426, 7.5471, -6.867, -0.0915527, 0.0457764, 0.0152588, 0, 0
136810533, 0.0237891, 0.0241992, 0.0137402, 0.0163037, 0.110087, 7.55688, -6.86945, -0.0762939, 0.0915527, -0.0457764, 0, 0
136810543, 0.0251221, 0.0251221, 0.0120996, 0.0154834, 0.122319, 7.54954, -6.867, 0, -0.0305176, 0.0152588, 0, 0
136810553, 0.0251221, 0.0255322, 0.0112793, 0.0150732, 0.11498, 7.56422, -6.85477, -0.0762939, -0.0762939, 0.0152588, 0, 0
136810573, 0.0237891, 0.0255322, 0.0158936, 0.0145605, 0.117426, 7.56911, -6.85721, -0.0762939, 0.0152588, -0.0152588, 0, 0
136810583, 0.0267627, 0.0237891, 0.0141504, 0.0145605, 0.102748, 7.56177, -6.86455, -0.137329, -0.0610352, 0, 0, 0
136810593, 0.0237891, 0.0271729, 0.0150732, 0.0125098, 0.105195, 7.56667, -6.85232, -0.167847, -0.0305176, -0.0610352, 0, 0
136810603, 0.0237891, 0.0247119, 0.0137402, 0.0137402, 0.112534, 7.56422, -6.86945, -0.106812, -0.0457764, -0.0152588, 0, 0
136810613, 0.0233789, 0.0241992, 0.0108691, 0.0175342, 0.11498, 7.56422, -6.85721, -0.0152588, -0.0305176, -0.0305176, 0, 0
136810643, 0.0237891, 0.027583, 0.0150732, 0.0158936, 0.112534, 7.55443, -6.85721, -0.0762939, 0.0457764, -0.0152588, 0, 0
136810653, 0.0237891, 0.0225586, 0.0150732, 0.0158936, 0.100302, 7.5471, -6.85232, -0.0915527, 0.0305176, 0.0305176, 0, 0
136810663, 0.0229687, 0.0225586, 0.0133301, 0.0175342, 0.112534, 7.56422, -6.85966, -0.137329, 0.0610352, -0.0305176, 0, 0
136810683, 0.0225586, 0.0279932, 0.0133301, 0.0150732, 0.112534, 7.56667, -6.87679, -0.0305176, 0, 0.0152588, 0, 0
136810693, 0.0229687, 0.0251221, 0.0137402, 0.0150732, 0.0929626, 7.56177, -6.86455, -0.12207, -0.0762939, -0.0152588, 0, 0
136810703, 0.0217383, 0.0255322, 0.0133301, 0.0163037, 0.117426, 7.55443, -6.86211, -0.152588, 0.0152588, 0.0152588, 0, 0
136810713, 0.0217383, 0.0255322, 0.0116895, 0.0154834, 0.102748, 7.54465, -6.86211, -0.137329, -0.0610352, 0.0305176, 0, 0
136810723, 0.0213281, 0.0233789, 0.0116895, 0.0163037, 0.117426, 7.56911, -6.867, -0.12207, -0.0305176, 0, 0, 0
136810733, 0.0247119, 0.0259424, 0.0125098, 0.0154834, 0.105195, 7.56177, -6.87434, -0.106812, -0.0305176, 0, 0, 0
136810743, 0.0233789, 0.0255322, 0.0154834, 0.0154834, 0.122319, 7.55443, -6.85966, -0.167847, 0.0762939, -0.0762939, 0, 0
136810753, 0.0221484, 0.0271729, 0.0133301, 0.0141504, 0.11498, 7.55933, -6.87189, -0.106812, -0.0305176, 0.0305176, 0, 0
136810773, 0.0237891, 0.0255322, 0.0163037, 0.0163037, 0.11498, 7.55199, -6.88168, -0.0457764, -0.0305176, 0.0152588, 0, 0
136810783, 0.0241992, 0.0217383, 0.0141504, 0.0150732, 0.11498, 7.55443, -6.85477, -0.106812, 0.0610352, 0, 0, 0
136810793, 0.0229687, 0.0267627, 0.0137402, 0.0150732, 0.112534, 7.56177, -6.84988, -0.137329, 0.0305176, -0.0305176, 0, 0
136810803, 0.0225586, 0.0271729, 0.0158936, 0.0158936, 0.122319, 7.56422, -6.85477, -0.152588, -0.0610352, -0.0457764, 0, 0
136810813, 0.0225586, 0.0259424, 0.0150732, 0.0154834, 0.102748, 7.55443, -6.867, -0.0915527, 0.106812, 0.0152588, 0, 0
136810823, 0.0237891, 0.0259424, 0.0150732, 0.0141504, 0.0978554, 7.56667, -6.86455, -0.137329, 0.0457764, -0.0305176, 0, 0
136810833, 0.0255322, 0.0263525, 0.0150732, 0.0154834, 0.117426, 7.56911, -6.86211, -0.0610352, 0.0305176, 0, 0, 0
136810853, 0.0259424, 0.0241992, 0.0141504, 0.0150732, 0.105195, 7.56177, -6.86945, -0.0610352, -0.0610352, -0.0152588, 0, 0
136810863, 0.0259424, 0.0233789, 0.0120996, 0.017124, 0.107641, 7.55688, -6.88168, -0.0610352, -0.0152588, 0, 0, 0
136810873, 0.0237891, 0.0233789, 0.0137402, 0.0163037, 0.107641, 7.57156, -6.85232, -0.137329, -0.0152588, -0.0305176, 0, 0
136810883, 0.0229687, 0.0297363, 0.0137402, 0.0179443, 0.095409, 7.55933, -6.85477, -0.0610352, 0.0305176, -0.0457764, 0, 0
136810893, 0.0267627, 0.0259424, 0.0154834, 0.0163037, 0.122319, 7.55688, -6.86455, -0.0457764, 0.0152588, -0.0152588, 0, 0
136810903, 0.0233789, 0.027583, 0.0141504, 0.0163037, 0.122319, 7.56422, -6.84988, -0.137329, -0.0610352, 0.0305176, 0, 0
136810913, 0.0255322, 0.0271729, 0.0145605, 0.0150732, 0.102748, 7.56667, -6.85721, -0.106812, -0.0305176, 0, 0, 0
136810923, 0.0255322, 0.0271729, 0.0133301, 0.0163037, 0.119873, 7.55443, -6.86455, -0.0610352, -0.0152588, 0.0152588, 0, 0
136810943, 0.0267627, 0.0259424, 0.0145605, 0.0150732, 0.112534, 7.56911, -6.85721, -0.106812, -0.0610352, 0, 0, 0
136810953, 0.0241992, 0.0233789, 0.0145605, 0.0150732, 0.107641, 7.54954, -6.85721, -0.0762939, -0.0610352, -0.0457764, 0, 0
136810963, 0.0241992, 0.0251221, 0.0141504, 0.0167139, 0.110087, 7.54954, -6.867, -0.137329, -0.0152588, 0, 0, 0
136810973, 0.0241992, 0.0263525, 0.0137402, 0.0150732, 0.119873, 7.55933, -6.86455, -0.198364, -0.0457764, 0.0152588, 0, 0
136810983, 0.0241992, 0.0263525, 0.0137402, 0.0154834, 0.11498, 7.54954, -6.86211, -0.137329, 0.0457764, -0.0152588, 0, 0
136810993, 0.0259424, 0.0259424, 0.0125098, 0.0141504, 0.110087, 7.56177, -6.86455, -0.0610352, -0.0457764, 0.0457764, 0, 0
136811003, 0.0221484, 0.0255322, 0.0133301, 0.0141504, 0.105195, 7.56422, -6.867, -0.106812, -0.0305176, -0.0152588, 0, 0
136811023, 0.0241992, 0.0251221, 0.0133301, 0.0163037, 0.102748, 7.56667, -6.86455, -0.0152588, 0.0152588, -0.0152588, 0, 0
136811033, 0.0241992, 0.0251221, 0.0133301, 0.0158936, 0.110087, 7.57645, -6.867, -0.0915527, 0.0305176, 0, 0, 0
136811043, 0.0247119, 0.0255322, 0.0141504, 0.0163037, 0.0978554, 7.55443, -6.87189, -0.0457764, 0.0305176, -0.0152588, 0, 0
136811053, 0.0237891, 0.0237891, 0.0120996, 0.0163037, 0.117426, 7.57156, -6.85966, -0.0305176, 0.0305176, 0, 0, 0
136811063, 0.0251221, 0.0267627, 0.0129199, 0.0163037, 0.11498, 7.55199, -6.84498, -0.0915527, 0, 0.0610352, 0, 0
136811073, 0.0225586, 0.0255322, 0.0137402, 0.0191748, 0.100302, 7.56422, -6.85232, -0.137329, 0.0305176, -0.0152588, 0, 0
136811083, 0.0225586, 0.0255322, 0.0154834, 0.0158936, 0.11498, 7.56422, -6.86945, -0.0457764, -0.0610352, -0.0305176, 0, 0
136811093, 0.0229687, 0.0267627, 0.0154834, 0.0150732, 0.110087, 7.56177, -6.84743, -0.106812, -0.0915527, 0.0610352, 0, 0
136811113, 0.0213281, 0.0263525, 0.0129199, 0.0154834, 0.107641, 7.55199, -6.85232, -0.0915527, 0, -0.0152588, 0, 0
136811123, 0.0237891, 0.0267627, 0.0154834, 0.0179443, 0.102748, 7.55688, -6.84254, -0.12207, 0.0305176, 0.0457764, 0, 0
136811133, 0.0237891, 0.0267627, 0.0116895, 0.0154834, 0.132105, 7.56667, -6.86455, -0.0915527, -0.0152588, 0.0457764, 0, 0
136811143, 0.0247119, 0.0259424, 0.0116895, 0.0133301, 0.119873, 7.54465, -6.85721, -0.0915527, -0.0610352, -0.0457764, 0, 0
136811153, 0.0237891, 0.0259424, 0.0163037, 0.0179443, 0.110087, 7.54954, -6.85477, -0.137329, 0, 0, 0, 0
136811163, 0.0217383, 0.0259424, 0.0141504, 0.0179443, 0.110087, 7.54954, -6.86945, -0.0457764, 0.0152588, -0.0305176, 0, 0
136811173, 0.0233789, 0.0237891, 0.0112793, 0.0167139, 0.105195, 7.55933, -6.86211, -0.0915527, -0.0610352, 0.0305176, 0, 0
136811193, 0.0247119, 0.0229687, 0.0154834, 0.0154834, 0.117426, 7.56177, -6.867, -0.137329, -0.0152588, 0.0457764, 0, 0
136811203, 0.0247119, 0.0263525, 0.0137402, 0.0154834, 0.119873, 7.56422, -6.86455, -0.0915527, -0.0305176, 0, 0, 0
136811213, 0.0237891, 0.0255322, 0.0112793, 0.0154834, 0.122319, 7.56422, -6.87189, -0.0915527, 0.0152588, -0.0152588, 0, 0
136811223, 0.0213281, 0.027583, 0.0145605, 0.0150732, 0.110087, 7.56667, -6.86455, -0.137329, -0.0305176, -0.0457764, 0, 0
136811233, 0.0213281, 0.0255322, 0.0133301, 0.0158936, 0.107641, 7.55199, -6.867, -0.0915527, -0.0152588, 0.0152588, 0, 0
136811243, 0.0241992, 0.0255322, 0.0133301, 0.0175342, 0.112534, 7.55933, -6.85721, -0.12207, -0.0305176, 0.0152588, 0, 0
136811253, 0.0225586, 0.0259424, 0.0150732, 0.0175342, 0.112534, 7.57156, -6.86945, -0.12207, -0.0457764, -0.0457764, 0, 0
136811263, 0.0237891, 0.0259424, 0.0145605, 0.0175342, 0.110087, 7.56911, -6.84988, -0.0762939, -0.0305176, 0, 0, 0
136811283, 0.0233789, 0.0237891, 0.0133301, 0.0145605, 0.11498, 7.56177, -6.87189, -0.0762939, -0.0305176, -0.0457764, 0, 0
136811293, 0.0233789, 0.0237891, 0.0129199, 0.0175342, 0.0929626, 7.55933, -6.85966, -0.167847, 0.0152588, -0.0305176, 0, 0
136811303, 0.0267627, 0.0247119, 0.0129199, 0.0163037, 0.11498, 7.56667, -6.86945, -0.0305176, 0.0762939, -0.12207, 0, 0
136811313, 0.0255322, 0.0237891, 0.0129199, 0.0145605, 0.117426, 7.56177, -6.86455, -0.0915527, -0.0152588, 0.0152588, 0, 0
136811323, 0.0247119, 0.0237891, 0.0125098, 0.0145605, 0.112534, 7.56177, -6.86945, -0.106812, -0.0457764, -0.0762939, 0, 0
136811333, 0.0237891, 0.0251221, 0.0141504, 0.017124, 0.107641, 7.57156, -6.85966, -0.0915527, 0.0457764, 0.0152588, 0, 0
136811343, 0.0237891, 0.0251221, 0.0129199, 0.0163037, 0.105195, 7.56422, -6.85721, -0.0305176, 0.0152588, -0.0610352, 0, 0
136811363, 0.0241992, 0.0251221, 0.0129199, 0.0120996, 0.122319, 7.56667, -6.84254, -0.0762939, 0.0762939, 0.0305176, 0, 0
136811373, 0.0259424, 0.0279932, 0.0112793, 0.0120996, 0.110087, 7.56422, -6.84254, -0.0610352, 0, -0.0152588, 0, 0
136811383, 0.0267627, 0.0267627, 0.0129199, 0.0163037, 0.112534, 7.57401, -6.87434, -0.12207, -0.0305176, -0.0152588, 0, 0
136811393, 0.0267627, 0.0267627, 0.0141504, 0.0158936, 0.110087, 7.5471, -6.85966, -0.106812, -0.0457764, 0.0152588, 0, 0
136811403, 0.0247119, 0.0255322, 0.0141504, 0.0133301, 0.124766, 7.55933, -6.85966, -0.0305176, 0.0915527, 0, 0, 0
136811413, 0.0225586, 0.0255322, 0.0125098, 0.0175342, 0.107641, 7.55688, -6.85966, -0.106812, 0, -0.0152588, 0, 0
136811423, 0.0241992, 0.0247119, 0.0125098, 0.0175342, 0.117426, 7.56177, -6.85966, -0.152588, 0.0152588, -0.0305176, 0, 0
136811433, 0.0225586, 0.0263525, 0.0133301, 0.0141504, 0.117426, 7.55933, -6.87189, -0.152588, 0, 0, 0, 0
136811453, 0.0241992, 0.0241992, 0.0120996, 0.0137402, 0.102748, 7.56911, -6.85232, -0.0762939, -0.0915527, 0.0457764, 0, 0
136811463, 0.0251221, 0.0237891, 0.0154834, 0.0175342, 0.112534, 7.56667, -6.867, -0.106812, -0.0457764, 0, 0, 0
136811473, 0.020918, 0.0267627, 0.0141504, 0.0175342, 0.11498, 7.55199, -6.85477, -0.106812, -0.0457764, 0, 0, 0
136811483, 0.0233789, 0.0251221, 0.0150732, 0.0154834, 0.119873, 7.57156, -6.84498, -0.0610352, -0.0152588, 0.0305176, 0, 0
136811493, 0.0221484, 0.0251221, 0.0137402, 0.0141504, 0.11498, 7.56422, -6.85477, -0.0915527, -0.0762939, -0.0457764, 0, 0
136811503, 0.0221484, 0.0251221, 0.0133301, 0.0179443, 0.127212, 7.55933, -6.86211, -0.106812, 0.0152588, 0.0305176, 0, 0
136811513, 0.0237891, 0.0259424, 0.0133301, 0.0154834, 0.117426, 7.55199, -6.85477, -0.12207, -0.0152588, 0, 0, 0
136811523, 0.0213281, 0.0237891, 0.0133301, 0.0154834, 0.119873, 7.55933, -6.87923, -0.0610352, 0.0457764, 0.0152588, 0, 0
136811543, 0.0251221, 0.0241992, 0.0108691, 0.0154834, 0.119873, 7.55688, -6.86211, -0.0915527, 0.0610352, -0.0152588, 0, 0
136811553, 0.0251221, 0.0241992, 0.0150732, 0.0154834, 0.117426, 7.56422, -6.87923, -0.106812, 0, -0.0457764, 0, 0
136811563, 0.0229687, 0.0263525, 0.0150732, 0.0145605, 0.107641, 7.56177, -6.85477, -0.106812, -0.0305176, 0, 0, 0
136811573, 0.0225586, 0.0271729, 0.0145605, 0.0150732, 0.105195, 7.57156, -6.85721, -0.106812, 0.0152588, 0, 0, 0
136811583, 0.0255322, 0.0259424, 0.0137402, 0.0150732, 0.11498, 7.56422, -6.867, -0.152588, 0.0305176, 0.0152588, 0, 0
136811593, 0.0237891, 0.0267627, 0.0167139, 0.0163037, 0.112534, 7.55199, -6.85966, -0.198364, 0.0610352, 0, 0, 0
136811603, 0.0237891, 0.0267627, 0.0129199, 0.0137402, 0.11498, 7.56422, -6.87189, -0.152588, 0, 0.0152588, 0, 0
136811623, 0.0267627, 0.0241992, 0.0120996, 0.0163037, 0.100302, 7.56422, -6.87923, -0.213623, 0, 0, 0, 0
136811633, 0.0247119, 0.0237891, 0.0137402, 0.0163037, 0.117426, 7.54954, -6.85477, -0.0915527, 0, 0.0152588, 0, 0
136811643, 0.0247119, 0.0255322, 0.0116895, 0.0154834, 0.11498, 7.55688, -6.86211, -0.106812, -0.0152588, 0, 0, 0
136811653, 0.0247119, 0.0229687, 0.0120996, 0.0125098, 0.11498, 7.55933, -6.87189, -0.0915527, 0.0610352, -0.0152588, 0, 0
136811663, 0.0255322, 0.0229687, 0.0120996, 0.0158936, 0.105195, 7.5471, -6.84743, -0.0915527, -0.0305176, -0.0610352, 0, 0
136811673, 0.0237891, 0.0247119, 0.0129199, 0.0154834, 0.110087, 7.55688, -6.85966, 0, -0.0610352, -0.0457764, 0, 0
136811683, 0.0237891, 0.0241992, 0.0125098, 0.0154834, 0.122319, 7.56911, -6.86211, -0.106812, 0.0457764, 0, 0, 0
136811693, 0.0213281, 0.0263525, 0.0150732, 0.0163037, 0.105195, 7.56667, -6.86211, -0.0762939, -0.0457764, -0.0152588, 0, 0
136811713, 0.0225586, 0.0241992, 0.0158936, 0.0120996, 0.11498, 7.56422, -6.85232, -0.0762939, 0.0305176, 0, 0, 0
136811723, 0.0255322, 0.0247119, 0.0158936, 0.0141504, 0.136998, 7.57156, -6.84254, -0.0762939, 0.0152588, 0.0457764, 0, 0
136811733, 0.0229687, 0.0221484, 0.0112793, 0.0175342, 0.105195, 7.56667, -6.86211, -0.106812, -0.0762939, 0.0152588, 0, 0
136811743, 0.0229687, 0.0241992, 0.0145605, 0.0175342, 0.105195, 7.56177, -6.85721, -0.0915527, -0.0610352, -0.0305176, 0, 0
136811753, 0.0233789, 0.0241992, 0.0141504, 0.0167139, 0.102748, 7.57401, -6.86945, -0.0762939, 0.0152588, 0.0457764, 0, 0
136811763, 0.0233789, 0.0241992, 0.0150732, 0.0141504, 0.112534, 7.55199, -6.86211, -0.0762939, -0.0152588, 0.0152588, 0, 0
136811773, 0.0237891, 0.0259424, 0.0150732, 0.0120996, 0.11498, 7.55199, -6.86211, -0.0915527, 0.0152588, 0, 0, 0
136811793, 0.0229687, 0.0255322, 0.0133301, 0.0154834, 0.122319, 7.55443, -6.86945, -0.137329, 0.0152588, -0.0762939, 0, 0
136811803, 0.0237891, 0.0251221, 0.0150732, 0.0150732, 0.122319, 7.56177, -6.84988, -0.106812, 0.0457764, 0, 0, 0
136811813, 0.0237891, 0.0251221, 0.0145605, 0.017124, 0.122319, 7.55199, -6.85232, -0.0610352, 0.0457764, 0, 0, 0
136811823, 0.0217383, 0.0221484, 0.0145605, 0.0167139, 0.122319, 7.55443, -6.86211, -0.0915527, -0.0457764, 0.0152588, 0, 0
136811833, 0.0237891, 0.0241992, 0.0133301, 0.0145605, 0.105195, 7.55688, -6.85966, -0.0762939, -0.0915527, 0, 0, 0
136811843, 0.0247119, 0.0255322, 0.0133301, 0.0145605, 0.119873, 7.56667, -6.867, -0.167847, 0.0152588, -0.0152588, 0, 0
136811853, 0.0233789, 0.0255322, 0.0154834, 0.0154834, 0.105195, 7.55688, -6.86211, -0.12207, 0, -0.0152588, 0, 0
136811863, 0.0251221, 0.0251221, 0.0137402, 0.0145605, 0.112534, 7.56667, -6.84988, -0.106812, 0, 0.0152588, 0, 0
136811883, 0.0251221, 0.0259424, 0.0154834, 0.0133301, 0.11498, 7.55688, -6.85232, -0.106812, 0, 0.0152588, 0, 0
136811893, 0.0241992, 0.0263525, 0.0137402, 0.0133301, 0.110087, 7.54954, -6.84988, -0.0610352, 0, -0.0610352, 0, 0
136811903, 0.0241992, 0.0255322, 0.0141504, 0.0163037, 0.119873, 7.55688, -6.86211, -0.167847, -0.0457764, 0.0152588, 0, 0
136811913, 0.0217383, 0.0241992, 0.0125098, 0.0145605, 0.0978554, 7.55933, -6.85232, -0.0915527, 0.0457764, -0.0305176, 0, 0
136811923, 0.0217383, 0.0241992, 0.0125098, 0.017124, 0.129658, 7.57156, -6.87434, -0.106812, 0.0457764, -0.0305176, 0, 0
136811933, 0.0217383, 0.0251221, 0.0154834, 0.017124, 0.11498, 7.55688, -6.867, -0.137329, 0, -0.0152588, 0, 0
136811943, 0.0233789, 0.0233789, 0.0141504, 0.0129199, 0.107641, 7.55443, -6.86455, -0.12207, -0.0762939, 0.0152588, 0, 0
136811963, 0.0221484, 0.0251221, 0.0116895, 0.0133301, 0.119873, 7.55933, -6.867, -0.137329, 0.0152588, 0, 0, 0
136811973, 0.0221484, 0.0251221, 0.0137402, 0.0141504, 0.122319, 7.57645, -6.87189, -0.12207, -0.0305176, -0.0610352, 0, 0
136811983, 0.0241992, 0.0241992, 0.0137402, 0.0145605, 0.0978554, 7.55443, -6.86211, -0.0610352, -0.0305176, 0, 0, 0
136811993, 0.0225586, 0.0259424, 0.0125098, 0.0145605, 0.11498, 7.55199, -6.86945, -0.0610352, 0.0305176, -0.0457764, 0, 0
136812003, 0.0221484, 0.0255322, 0.0133301, 0.0145605, 0.105195, 7.55199, -6.84498, -0.0915527, 0.0457764, -0.0152588, 0, 0
136812013, 0.0213281, 0.0247119, 0.0158936, 0.0158936, 0.11498, 7.56177, -6.85232, -0.0915527, 0.0457764, -0.0152588, 0, 0
136812023, 0.0213281, 0.0247119, 0.0120996, 0.0163037, 0.117426, 7.56177, -6.85966, -0.0915527, 0.0610352, 0, 0, 0
136812033, 0.0233789, 0.0237891, 0.0120996, 0.0150732, 0.11498, 7.57645, -6.86211, -0.0915527, 0, -0.0610352, 0, 0
136812053, 0.0237891, 0.0241992, 0.0150732, 0.0158936, 0.095409, 7.56177, -6.87434, 0, -0.0152588, 0, 0, 0
136812063, 0.0229687, 0.0263525, 0.0116895, 0.0145605, 0.110087, 7.56667, -6.86211, -0.106812, 0.0152588, -0.0610352, 0, 0
136812073, 0.0237891, 0.0263525, 0.0145605, 0.0150732, 0.11498, 7.56667, -6.87434, -0.0305176, 0.0152588, -0.0305176, 0, 0
136812083, 0.0237891, 0.0237891, 0.0145605, 0.0145605, 0.105195, 7.56667, -6.85477, -0.0762939, 0, 0.0152588, 0, 0
136812093, 0.0221484, 0.0251221, 0.0125098, 0.0150732, 0.11498, 7.56422, -6.85966, -0.0915527, 0.0762939, -0.0152588, 0, 0
136812103, 0.0247119, 0.0251221, 0.0133301, 0.0150732, 0.112534, 7.55199, -6.86455, -0.106812, -0.106812, -0.0305176, 0, 0
136812113, 0.0237891, 0.0263525, 0.0133301, 0.0137402, 0.102748, 7.53976, -6.867, -0.137329, -0.0305176, -0.0152588, 0, 0
136812133, 0.0237891, 0.0267627, 0.0145605, 0.0137402, 0.122319, 7.56422, -6.867, -0.12207, -0.0457764, 0.0610352, 0, 0
136812143, 0.0237891, 0.0237891, 0.0141504, 0.0150732, 0.107641, 7.56177, -6.867, -0.167847, -0.167847, -0.0305176, 0, 0
136812153, 0.0241992, 0.0251221, 0.0112793, 0.0158936, 0.102748, 7.5471, -6.86945, -0.106812, 0.0152588, -0.0152588, 0, 0
136812163, 0.0229687, 0.0241992, 0.0129199, 0.0158936, 0.124766, 7.56667, -6.85966, 0, -0.106812, -0.0305176, 0, 0
136812173, 0.0255322, 0.0237891, 0.0112793, 0.0137402, 0.127212, 7.56177, -6.84498, -0.12207, 0.0305176, 0.0610352, 0, 0
136812183, 0.0255322, 0.0237891, 0.0137402, 0.0133301, 0.110087, 7.55443, -6.86945, -0.137329, -0.0457764, -0.0152588, 0, 0
136812193, 0.0221484, 0.0251221, 0.0137402, 0.0137402, 0.110087, 7.56422, -6.867, -0.106812, -0.0305176, -0.0152588, 0, 0
136812203, 0.0213281, 0.0225586, 0.0133301, 0.0137402, 0.0978554, 7.55933, -6.85966, -0.12207, -0.0610352, -0.0610352, 0, 0
136812223, 0.0237891, 0.0237891, 0.0125098, 0.0150732, 0.11498, 7.55933, -6.87189, -0.0762939, 0, -0.0152588, 0, 0
136812233, 0.0237891, 0.0237891, 0.0150732, 0.0150732, 0.100302, 7.55933, -6.86455, -0.0457764, -0.0610352, -0.0152588, 0, 0
136812243, 0.0217383, 0.0241992, 0.0150732, 0.0158936, 0.105195, 7.56911, -6.86211, -0.137329, 0.0305176, 0.0610352, 0, 0
136812253, 0.0247119, 0.0271729, 0.0137402, 0.0154834, 0.11498, 7.5422, -6.86945, -0.106812, 0.0457764, -0.0305176, 0, 0
136812263, 0.0237891, 0.0288135, 0.0145605, 0.0154834, 0.122319, 7.57156, -6.85721, -0.137329, -0.0610352, -0.0305176, 0, 0
136812273, 0.0255322, 0.0229687, 0.0129199, 0.0150732, 0.119873, 7.57401, -6.87189, -0.0915527, 0.0305176, -0.0305176, 0, 0
136812283, 0.0233789, 0.0229687, 0.0129199, 0.0158936, 0.11498, 7.55443, -6.85721, -0.0762939, 0, 0.0457764, 0, 0
136812303, 0.0233789, 0.0247119, 0.0141504, 0.0150732, 0.0978554, 7.56911, -6.85966, -0.0915527, -0.0915527, -0.0152588, 0, 0
136812313, 0.0255322, 0.0263525, 0.0112793, 0.0150732, 0.100302, 7.54954, -6.85966, -0.0610352, 0.0610352, 0.0152588, 0, 0
136812323, 0.0263525, 0.0251221, 0.0125098, 0.0145605, 0.102748, 7.55443, -6.86945, -0.12207, -0.0305176, -0.0152588, 0, 0
136812333, 0.0221484, 0.0263525, 0.0125098, 0.0150732, 0.0978554, 7.57156, -6.86945, -0.0915527, 0.0152588, -0.0305176, 0, 0
136812343, 0.0221484, 0.0263525, 0.0125098, 0.0158936, 0.0978554, 7.56667, -6.88168, -0.0457764, -0.0152588, 0.0457764, 0, 0
136812353, 0.0213281, 0.0225586, 0.0116895, 0.0150732, 0.110087, 7.57156, -6.86455, -0.0610352, -0.0305176, 0.0457764, 0, 0
136812363, 0.0225586, 0.0255322, 0.0120996, 0.017124, 0.107641, 7.55688, -6.85721, -0.12207, 0.0457764, -0.0457764, 0, 0
136812373, 0.0225586, 0.0259424, 0.0133301, 0.017124, 0.11498, 7.56177, -6.85721, -0.0152588, -0.0457764, 0, 0, 0
136812393, 0.0233789, 0.0251221, 0.0129199, 0.0158936, 0.107641, 7.57156, -6.85477, -0.0457764, 0.0457764, -0.0152588, 0, 0
136812403, 0.0237891, 0.0255322, 0.0129199, 0.0154834, 0.105195, 7.56911, -6.85721, -0.0152588, 0.0152588, 0.0152588, 0, 0
136812413, 0.0247119, 0.0279932, 0.0137402, 0.0137402, 0.102748, 7.55443, -6.86211, -0.0610352, -0.0457764, -0.0152588, 0, 0
136812423, 0.0241992, 0.0229687, 0.0137402, 0.0137402, 0.11498, 7.54465, -6.85966, -0.0457764, 0.0152588, -0.0305176, 0, 0
136812433, 0.0233789, 0.0241992, 0.0133301, 0.0141504, 0.107641, 7.55688, -6.86455, -0.106812, -0.0305176, 0, 0, 0
136812443, 0.0233789, 0.0241992, 0.0120996, 0.0154834, 0.122319, 7.56177, -6.85232, -0.137329, -0.0610352, -0.0305176, 0, 0
136812453, 0.0247119, 0.0255322, 0.0120996, 0.0116895, 0.102748, 7.56667, -6.86211, -0.0152588, 0.0762939, 0.0457764, 0, 0
136812473, 0.0217383, 0.0237891, 0.0120996, 0.0158936, 0.102748, 7.56177, -6.87189, -0.0610352, 0.0762939, -0.0152588, 0, 0
136812483, 0.0213281, 0.0255322, 0.0129199, 0.0129199, 0.117426, 7.56422, -6.87679, -0.12207, -0.0305176, 0.0305176, 0, 0
136812493, 0.0237891, 0.0255322, 0.0137402, 0.0167139, 0.129658, 7.55443, -6.86455, -0.0915527, 0.0305176, -0.0152588, 0, 0
136812503, 0.0237891, 0.0251221, 0.0137402, 0.0154834, 0.122319, 7.55933, -6.85966, -0.0610352, 0.0610352, 0, 0, 0
136812513, 0.0237891, 0.0267627, 0.0116895, 0.0125098, 0.11498, 7.54465, -6.84498, -0.0762939, 0.0152588, 0.0305176, 0, 0
136812523, 0.0259424, 0.0229687, 0.0145605, 0.0125098, 0.102748, 7.56422, -6.85966, -0.0762939, 0.0152588, 0, 0, 0
136812533, 0.0217383, 0.0267627, 0.0145605, 0.0167139, 0.119873, 7.56911, -6.867, -0.0305176, -0.0915527, -0.0305176, 0, 0
136812543, 0.0255322, 0.0237891, 0.0133301, 0.0158936, 0.102748, 7.55199, -6.85721, -0.0762939, -0.0152588, 0, 0, 0
136812563, 0.0255322, 0.0267627, 0.0133301, 0.0116895, 0.110087, 7.57645, -6.85477, -0.0762939, -0.0152588, 0.0457764, 0, 0
136812573, 0.0255322, 0.0251221, 0.0141504, 0.017124, 0.112534, 7.56667, -6.87923, -0.12207, 0.0152588, 0, 0, 0
136812583, 0.0233789, 0.0251221, 0.0137402, 0.017124, 0.11498, 7.56911, -6.87434, -0.0915527, -0.0457764, 0, 0, 0
136812593, 0.0255322, 0.0241992, 0.0137402, 0.0163037, 0.117426, 7.55443, -6.85966, -0.0915527, 0, -0.0152588, 0, 0
136812603, 0.0255322, 0.0241992, 0.0145605, 0.0150732, 0.117426, 7.56422, -6.84498, -0.0915527, -0.0305176, 0, 0, 0
136812613, 0.0247119, 0.027583, 0.0145605, 0.0150732, 0.110087, 7.56422, -6.86211, -0.106812, -0.0152588, -0.0610352, 0, 0
136812623, 0.0241992, 0.0225586, 0.0137402, 0.017124, 0.11498, 7.54954, -6.85477, -0.12207, -0.0152588, -0.0457764, 0, 0
136812643, 0.0229687, 0.0251221, 0.0116895, 0.0137402, 0.119873, 7.56177, -6.85966, -0.106812, -0.0152588, -0.0305176, 0, 0
136812653, 0.0233789, 0.0251221, 0.0133301, 0.017124, 0.112534, 7.56177, -6.87189, -0.0915527, 0, 0, 0, 0
136812663, 0.0233789, 0.0255322, 0.0133301, 0.0133301, 0.112534, 7.55199, -6.85966, -0.152588, 0.0305176, -0.0457764, 0, 0
136812673, 0.0229687, 0.0255322, 0.0141504, 0.0154834, 0.100302, 7.55933, -6.86211, -0.0915527, -0.0762939, 0, 0, 0
136812683, 0.0237891, 0.0263525, 0.0133301, 0.0154834, 0.112534, 7.56422, -6.85477, -0.106812, -0.0305176, 0, 0, 0
136812693, 0.0241992, 0.0233789, 0.0133301, 0.0150732, 0.11498, 7.55199, -6.86455, -0.106812, 0.0305176, 0.0610352, 0, 0
136812703, 0.0213281, 0.0233789, 0.0120996, 0.0167139, 0.102748, 7.55199, -6.85232, -0.0762939, 0.0152588, 0.0305176, 0, 0
136812713, 0.0213281, 0.0241992, 0.0120996, 0.0145605, 0.112534, 7.57645, -6.85477, -0.12207, -0.0152588, 0, 0, 0
136812733, 0.0247119, 0.0259424, 0.0141504, 0.0158936, 0.105195, 7.54954, -6.85721, -0.0762939, 0, -0.0610352, 0, 0
136812743, 0.0247119, 0.0255322, 0.0145605, 0.0141504, 0.107641, 7.55443, -6.84743, -0.0457764, 0.0457764, 0, 0, 0
136812753, 0.0267627, 0.0263525, 0.0137402, 0.017124, 0.110087, 7.56177, -6.88168, -0.0915527, -0.0762939, -0.0457764, 0, 0
136812763, 0.0267627, 0.0263525, 0.0137402, 0.0158936, 0.105195, 7.56177, -6.84254, -0.137329, -0.0305176, 0.0152588, 0, 0
136812773, 0.0229687, 0.0255322, 0.0137402, 0.0137402, 0.119873, 7.57156, -6.85232, -0.0915527, 0.0152588, -0.0152588, 0, 0
136812783, 0.0229687, 0.0263525, 0.0120996, 0.0137402, 0.119873, 7.55933, -6.85232, -0.137329, -0.0762939, -0.0152588, 0, 0
136812793, 0.0247119, 0.0251221, 0.0150732, 0.0154834, 0.102748, 7.5422, -6.85966, -0.152588, 0, 0.0152588, 0, 0
136812813, 0.0233789, 0.0247119, 0.0125098, 0.0141504, 0.102748, 7.55933, -6.86211, -0.0610352, 0, 0.0152588, 0, 0
136812823, 0.0221484, 0.0267627, 0.0125098, 0.0150732, 0.119873, 7.55443, -6.85232, -0.152588, -0.0457764, 0.0152588, 0, 0
136812833, 0.0237891, 0.0233789, 0.0133301, 0.0154834, 0.11498, 7.55443, -6.85966, -0.0610352, -0.0610352, -0.0305176, 0, 0
136812843, 0.0251221, 0.0255322, 0.0129199, 0.0154834, 0.100302, 7.5471, -6.867, -0.0762939, -0.0762939, 0, 0, 0
136812853, 0.0233789, 0.027583, 0.0133301, 0.0137402, 0.105195, 7.56177, -6.85966, -0.0457764, 0.0305176, 0.0152588, 0, 0
136812863, 0.0233789, 0.027583, 0.0137402, 0.0145605, 0.107641, 7.5471, -6.84988, -0.0915527, 0.0457764, -0.0152588, 0, 0
136812873, 0.0233789, 0.0263525, 0.0137402, 0.0137402, 0.107641, 7.56667, -6.86945, -0.106812, 0.0762939, 0, 0, 0
136812883, 0.0251221, 0.0255322, 0.0129199, 0.0141504, 0.132105, 7.56667, -6.88168, -0.12207, -0.0152588, 0, 0, 0
136812903, 0.0247119, 0.0251221, 0.0125098, 0.0183545, 0.127212, 7.57401, -6.85477, -0.106812, -0.0457764, -0.106812, 0, 0
136812913, 0.0233789, 0.0251221, 0.0141504, 0.0141504, 0.124766, 7.56177, -6.86455, -0.0610352, -0.0152588, 0.0152588, 0, 0
136812923, 0.0233789, 0.0263525, 0.0141504, 0.0179443, 0.124766, 7.56422, -6.86211, -0.0457764, 0.0457764, 0, 0, 0
136812933, 0.0217383, 0.0237891, 0.0141504, 0.0145605, 0.110087, 7.55933, -6.85721, -0.137329, -0.0457764, 0.0457764, 0, 0
136812943, 0.0255322, 0.0271729, 0.0120996, 0.0145605, 0.107641, 7.56177, -6.85477, -0.0457764, -0.0915527, -0.0152588, 0, 0
136812953, 0.0229687, 0.0237891, 0.0120996, 0.0150732, 0.112534, 7.56667, -6.84988, -0.12207, -0.0457764, -0.0610352, 0, 0
136812963, 0.0251221, 0.0237891, 0.0141504, 0.0167139, 0.129658, 7.55688, -6.88412, -0.152588, 0.0610352, -0.0152588, 0, 0
136812973, 0.0251221, 0.0237891, 0.0141504, 0.0167139, 0.110087, 7.56422, -6.86455, -0.0762939, -0.0305176, -0.0457764, 0, 0
136812993, 0.0213281, 0.0251221, 0.0133301, 0.0158936, 0.119873, 7.56177, -6.85966, -0.106812, 0.0152588, 0, 0, 0
136813003, 0.0241992, 0.0255322, 0.0133301, 0.0158936, 0.107641, 7.56667, -6.87189, -0.12207, 0, 0, 0, 0
136813013, 0.020918, 0.027583, 0.0137402, 0.0167139, 0.102748, 7.56667, -6.85477, -0.0915527, -0.0305176, -0.0457764, 0, 0
136813023, 0.020918, 0.027583, 0.0137402, 0.0167139, 0.119873, 7.56667, -6.85966, -0.0762939, 0.0457764, -0.0152588, 0, 0
136813033, 0.0241992, 0.0259424, 0.0137402, 0.0167139, 0.112534, 7.55199, -6.86211, -0.12207, -0.0457764, 0, 0, 0
136813043, 0.0255322, 0.0255322, 0.0137402, 0.0163037, 0.119873, 7.55688, -6.85721, -0.0915527, -0.12207, 0.0762939, 0, 0
136813053, 0.0251221, 0.0255322, 0.0116895, 0.0163037, 0.124766, 7.55933, -6.87434, -0.12207, 0.0305176, 0, 0, 0
136813073, 0.0229687, 0.0247119, 0.0133301, 0.0141504, 0.122319, 7.56667, -6.86211, -0.0762939, -0.0305176, -0.0457764, 0, 0
136813083, 0.0229687, 0.027583, 0.0133301, 0.0154834, 0.110087, 7.55443, -6.87189, -0.0762939, 0.0457764, 0, 0, 0
136813093, 0.0237891, 0.0255322, 0.0150732, 0.0158936, 0.112534, 7.55933, -6.86455, -0.137329, 0.0305176, -0.0305176, 0, 0
136813103, 0.0233789, 0.0263525, 0.0133301, 0.0158936, 0.112534, 7.57156, -6.86211, -0.12207, 0.0457764, 0.0152588, 0, 0
136813113, 0.0267627, 0.0251221, 0.0112793, 0.0133301, 0.11498, 7.56177, -6.86945, -0.0762939, -0.0305176, 0.0305176, 0, 0
136813123, 0.0225586, 0.0251221, 0.0141504, 0.0154834, 0.112534, 7.54954, -6.85721, -0.0762939, -0.0305176, 0, 0, 0
136813133, 0.0225586, 0.0247119, 0.0141504, 0.0183545, 0.117426, 7.55688, -6.86211, -0.0915527, -0.0152588, 0.0305176, 0, 0
136813143, 0.0247119, 0.0259424, 0.0125098, 0.0120996, 0.107641, 7.55199, -6.86211, -0.137329, 0.0152588, 0, 0, 0
136813163, 0.0225586, 0.0237891, 0.0129199, 0.0163037, 0.100302, 7.55688, -6.86455, -0.0762939, 0.0152588, 0.0152588, 0, 0
136813173, 0.0241992, 0.0237891, 0.0133301, 0.0150732, 0.112534, 7.57401, -6.86211, -0.106812, -0.0610352, -0.0610352, 0, 0
136813183, 0.0241992, 0.0255322, 0.0133301, 0.0167139, 0.112534, 7.56911, -6.86211, -0.0915527, -0.0305176, -0.0152588, 0, 0
136813193, 0.0225586, 0.0279932, 0.0129199, 0.0137402, 0.127212, 7.56422, -6.86211, -0.0305176, -0.0305176, 0.0305176, 0, 0
136813203, 0.0237891, 0.0247119, 0.0137402, 0.0137402, 0.107641, 7.55933, -6.87434, -0.106812, 0.0152588, 0, 0, 0
136813213, 0.020918, 0.0233789, 0.0129199, 0.017124, 0.112534, 7.56177, -6.86211, -0.0915527, 0.0152588, 0.0305176, 0, 0
136813223, 0.0241992, 0.0263525, 0.0141504, 0.0158936, 0.107641, 7.57645, -6.86211, -0.0305176, -0.0305176, -0.0152588, 0, 0
136813243, 0.0213281, 0.0255322, 0.0120996, 0.0163037, 0.105195, 7.57156, -6.85721, -0.137329, -0.0152588, -0.0152588, 0, 0
136813253, 0.0217383, 0.0247119, 0.0125098, 0.0154834, 0.107641, 7.5471, -6.87189, -0.0915527, -0.0762939, -0.0305176, 0, 0
136813263, 0.0255322, 0.0271729, 0.0125098, 0.0154834, 0.124766, 7.57156, -6.85966, -0.12207, -0.0305176, -0.0305176, 0, 0
136813273, 0.0233789, 0.0271729, 0.0137402, 0.0175342, 0.119873, 7.57645, -6.867, -0.0915527, 0, 0.0305176, 0, 0
136813283, 0.0233789, 0.0271729, 0.0129199, 0.0154834, 0.110087, 7.56667, -6.86455, -0.12207, 0.0610352, -0.0305176, 0, 0
136813293, 0.0233789, 0.0263525, 0.0129199, 0.0129199, 0.110087, 7.57645, -6.87189, -0.0610352, 0.0457764, -0.0152588, 0, 0
136813303, 0.0233789, 0.0251221, 0.0133301, 0.0158936, 0.122319, 7.56667, -6.84988, -0.0915527, 0.0152588, 0, 0, 0
136813313, 0.0221484, 0.0259424, 0.0112793, 0.0158936, 0.107641, 7.56422, -6.86945, -0.0915527, -0.0915527, -0.0305176, 0, 0
136813333, 0.0225586, 0.0251221, 0.0150732, 0.0145605, 0.112534, 7.55443, -6.85477, -0.152588, -0.0305176, -0.0152588, 0, 0
136813343, 0.0225586, 0.0271729, 0.0150732, 0.0145605, 0.11498, 7.56177, -6.84988, -0.106812, 0, -0.0152588, 0, 0
136813353, 0.0255322, 0.0241992, 0.0129199, 0.0141504, 0.105195, 7.55933, -6.84743, -0.12207, 0.0457764, -0.0457764, 0, 0
136813363, 0.0259424, 0.0255322, 0.0167139, 0.0141504, 0.105195, 7.55199, -6.86455, -0.106812, 0, -0.0457764, 0, 0
136813373, 0.0251221, 0.0255322, 0.0141504, 0.0150732, 0.117426, 7.54954, -6.87189, -0.152588, 0, -0.0305176, 0, 0
136813383, 0.0241992, 0.0255322, 0.0112793, 0.0133301, 0.124766, 7.56667, -6.86211, -0.12207, -0.0152588, -0.0152588, 0, 0
136813393, 0.0241992, 0.0229687, 0.0112793, 0.0141504, 0.100302, 7.5471, -6.87679, -0.106812, -0.0152588, -0.0457764, 0, 0
136813413, 0.0259424, 0.0247119, 0.0137402, 0.0137402, 0.0978554, 7.56177, -6.87434, -0.0610352, -0.0610352, -0.0305176, 0, 0
136813423, 0.0229687, 0.0255322, 0.0129199, 0.0120996, 0.102748, 7.55688, -6.86455, -0.0762939, 0.0152588, 0.0457764, 0, 0
136813433, 0.0221484, 0.0229687, 0.0133301, 0.0167139, 0.122319, 7.56911, -6.85966, -0.0610352, 0.0457764, 0.0305176, 0, 0
136813443, 0.0221484, 0.0229687, 0.0154834, 0.0129199, 0.112534, 7.55688, -6.85232, -0.0152588, -0.0152588, 0.0457764, 0, 0
136813453, 0.0241992, 0.0255322, 0.0154834, 0.0167139, 0.11498, 7.55199, -6.867, -0.106812, -0.0305176, -0.0305176, 0, 0
136813463, 0.0233789, 0.027583, 0.0145605, 0.0145605, 0.107641, 7.55443, -6.85966, -0.0915527, 0.0152588, 0.0305176, 0, 0
136813473, 0.0233789, 0.0271729, 0.0133301, 0.0145605, 0.107641, 7.55933, -6.867, -0.0762939, -0.0305176, 0, 0, 0
136813483, 0.0221484, 0.0255322, 0.0154834, 0.0141504, 0.100302, 7.55688, -6.85966, -0.106812, -0.0305176, -0.0152588, 0, 0
136813503, 0.0247119, 0.0259424, 0.0120996, 0.0163037, 0.100302, 7.57401, -6.84988, -0.0305176, 0.0152588, -0.0305176, 0, 0
136813513, 0.0241992, 0.0237891, 0.0137402, 0.0167139, 0.105195, 7.55688, -6.867, -0.152588, 0.0457764, -0.0457764, 0, 0
136813523, 0.0237891, 0.0241992, 0.0129199, 0.0167139, 0.11498, 7.56177, -6.87434, -0.106812, 0.0152588, -0.0305176, 0, 0
136813533, 0.0229687, 0.0247119, 0.0125098, 0.017124, 0.110087, 7.56667, -6.85477, -0.198364, -0.0305176, 0, 0, 0
136813543, 0.0233789, 0.0247119, 0.0129199, 0.0179443, 0.132105, 7.55688, -6.867, -0.106812, -0.0305176, -0.0152588, 0, 0
136813553, 0.0233789, 0.0241992, 0.0129199, 0.0163037, 0.102748, 7.55688, -6.85721, -0.137329, 0, -0.0152588, 0, 0
136813563, 0.0225586, 0.0263525, 0.0125098, 0.0150732, 0.110087, 7.56177, -6.86211, -0.106812, 0.0610352, 0, 0, 0
136813583, 0.0229687, 0.027583, 0.0129199, 0.0163037, 0.112534, 7.55933, -6.867, -0.106812, 0, -0.0305176, 0, 0
136813593, 0.0233789, 0.027583, 0.0133301, 0.0141504, 0.100302, 7.55933, -6.867, -0.12207, 0.0152588, -0.0762939, 0, 0
136813603, 0.0233789, 0.0251221, 0.0133301, 0.0163037, 0.124766, 7.54954, -6.85232, -0.0610352, 0, 0.0152588, 0, 0
136813613, 0.0237891, 0.0233789, 0.0145605, 0.0145605, 0.11498, 7.55933, -6.87679, -0.0915527, -0.0457764, -0.0152588, 0, 0
136813623, 0.0251221, 0.0259424, 0.0137402, 0.0145605, 0.11498, 7.55933, -6.867, 0, 0.0610352, -0.0762939, 0, 0
136813633, 0.0225586, 0.0241992, 0.0145605, 0.0145605, 0.105195, 7.56422, -6.85232, -0.183105, 0, 0.0610352, 0, 0
136813643, 0.0241992, 0.0241992, 0.0137402, 0.0145605, 0.112534, 7.55443, -6.85477, -0.0457764, -0.0305176, -0.0457764, 0, 0
136813653, 0.0237891, 0.0241992, 0.0120996, 0.0133301, 0.102748, 7.56422, -6.86945, -0.152588, -0.0457764, 0, 0, 0
136813673, 0.0217383, 0.0247119, 0.0150732, 0.0158936, 0.112534, 7.57156, -6.86455, -0.12207, -0.0305176, 0.0152588, 0, 0
136813683, 0.0247119, 0.0263525, 0.0150732, 0.0158936, 0.117426, 7.56177, -6.867, -0.0915527, -0.0457764, 0.0152588, 0, 0
136813693, 0.0229687, 0.0263525, 0.0129199, 0.0154834, 0.122319, 7.55443, -6.85232, -0.106812, 0, 0.0152588, 0, 0
136813703, 0.0233789, 0.0263525, 0.0137402, 0.0158936, 0.112534, 7.57401, -6.84743, -0.0305176, -0.0457764, 0.0152588, 0, 0
136813713, 0.0233789, 0.0251221, 0.0137402, 0.0163037, 0.0929626, 7.5471, -6.86211, -0.106812, 0.0915527, 0.0457764, 0, 0
136813723, 0.0241992, 0.0263525, 0.0154834, 0.0137402, 0.107641, 7.56177, -6.867, -0.0610352, 0.0762939, -0.0305176, 0, 0
136813733, 0.0229687, 0.0259424, 0.0150732, 0.0137402, 0.11498, 7.55933, -6.85721, -0.137329, -0.0305176, -0.0152588, 0, 0
136813753, 0.0237891, 0.0237891, 0.0129199, 0.0137402, 0.107641, 7.57156, -6.86211, -0.0915527, 0.0305176, -0.0152588, 0, 0
136813763, 0.0237891, 0.0241992, 0.0129199, 0.0129199, 0.112534, 7.55688, -6.867, -0.12207, -0.0457764, -0.0305176, 0, 0
136813773, 0.0229687, 0.0247119, 0.0145605, 0.0141504, 0.095409, 7.55688, -6.87923, -0.0457764, 0.0305176, -0.0762939, 0, 0
136813783, 0.0233789, 0.0255322, 0.0112793, 0.0141504, 0.110087, 7.56177, -6.86211, -0.106812, 0.0152588, -0.0762939, 0, 0
136813793, 0.0237891, 0.0225586, 0.0133301, 0.0141504, 0.11498, 7.56422, -6.85232, -0.0610352, -0.0915527, -0.0152588, 0, 0
136813803, 0.0229687, 0.0225586, 0.0150732, 0.0163037, 0.112534, 7.56667, -6.85477, -0.0915527, 0, -0.0305176, 0, 0
136813813, 0.0229687, 0.0271729, 0.0150732, 0.0150732, 0.100302, 7.5422, -6.87189, -0.0915527, 0, 0.0152588, 0, 0
136813823, 0.0255322, 0.0251221, 0.0141504, 0.0163037, 0.107641, 7.56667, -6.86211, -0.0610352, -0.0610352, -0.0305176, 0, 0
136813843, 0.0225586, 0.0263525, 0.0137402, 0.0137402, 0.11498, 7.56422, -6.85721, -0.106812, -0.0610352, 0, 0, 0
136813853, 0.0229687, 0.0263525, 0.0125098, 0.0163037, 0.122319, 7.55688, -6.85232, -0.167847, -0.0610352, -0.0457764, 0, 0
136813863, 0.0233789, 0.0271729, 0.0154834, 0.0167139, 0.122319, 7.57401, -6.85232, -0.0915527, 0.0152588, 0.0610352, 0, 0
136813873, 0.0233789, 0.0259424, 0.0154834, 0.0125098, 0.112534, 7.57645, -6.84009, -0.0305176, 0, 0.0457764, 0, 0
136813883, 0.0200977, 0.0263525, 0.0125098, 0.0167139, 0.119873, 7.57401, -6.87434, -0.152588, -0.0610352, -0.0457764, 0, 0
136813893, 0.0255322, 0.0225586, 0.0133301, 0.0167139, 0.095409, 7.56177, -6.85721, -0.0762939, -0.106812, -0.0762939, 0, 0
136813903, 0.0225586, 0.0255322, 0.0112793, 0.0183545, 0.112534, 7.56667, -6.86211, -0.137329, -0.0305176, 0, 0, 0
136813923, 0.0259424, 0.027583, 0.0154834, 0.0150732, 0.11498, 7.56177, -6.88168, -0.12207, -0.0305176, -0.0152588, 0, 0
136813933, 0.0233789, 0.0255322, 0.0154834, 0.0163037, 0.117426, 7.55933, -6.84743, -0.0305176, -0.0457764, 0, 0, 0
136813943, 0.0251221, 0.0263525, 0.0120996, 0.0163037, 0.117426, 7.55199, -6.85232, -0.0762939, 0.0152588, 0.0152588, 0, 0
136813953, 0.0225586, 0.0251221, 0.0112793, 0.0150732, 0.102748, 7.56177, -6.84254, -0.0915527, -0.0610352, 0, 0, 0
136813963, 0.0221484, 0.0251221, 0.0145605, 0.017124, 0.122319, 7.56177, -6.85721, -0.0762939, 0.0152588, -0.0152588, 0, 0
136813973, 0.0221484, 0.0241992, 0.0145605, 0.0175342, 0.107641, 7.55933, -6.87189, -0.167847, -0.0152588, 0.0152588, 0, 0
136813983, 0.0255322, 0.0259424, 0.0129199, 0.0154834, 0.107641, 7.55933, -6.867, -0.0457764, -0.0152588, -0.0457764, 0, 0
136813993, 0.0233789, 0.0263525, 0.0141504, 0.0154834, 0.11498, 7.55199, -6.85721, -0.137329, 0.0152588, 0, 0, 0
136814013, 0.0237891, 0.0271729, 0.0158936, 0.0150732, 0.110087, 7.54465, -6.85966, -0.0457764, 0.0610352, 0.0457764, 0, 0
136814023, 0.0237891, 0.0284033, 0.0158936, 0.0141504, 0.100302, 7.5422, -6.88412, -0.167847, -0.0305176, -0.0305176, 0, 0
136814033, 0.0251221, 0.0259424, 0.0137402, 0.0145605, 0.122319, 7.55933, -6.86455, -0.167847, 0.0915527, -0.0610352, 0, 0
136814043, 0.0229687, 0.0237891, 0.0120996, 0.0145605, 0.107641, 7.55688, -6.85721, -0.167847, 0.0305176, -0.0457764, 0, 0
136814053, 0.0255322, 0.0233789, 0.0129199, 0.0137402, 0.112534, 7.56911, -6.85966, -0.106812, -0.0762939, -0.0457764, 0, 0
136814063, 0.0225586, 0.0233789, 0.0133301, 0.0133301, 0.0978554, 7.55199, -6.86945, -0.106812, 0.0457764, 0.0152588, 0, 0
136814073, 0.0259424, 0.0255322, 0.0137402, 0.0137402, 0.11498, 7.56177, -6.86945, -0.0915527, -0.0305176, 0.0152588, 0, 0
136814093, 0.0233789, 0.0251221, 0.0116895, 0.017124, 0.107641, 7.55443, -6.86455, -0.106812, -0.0457764, 0, 0, 0
136814103, 0.0213281, 0.0241992, 0.0129199, 0.017124, 0.124766, 7.56177, -6.85477, -0.106812, 0.0762939, 0, 0, 0
136814113, 0.020918, 0.0259424, 0.0129199, 0.0163037, 0.0978554, 7.57645, -6.85721, -0.0915527, 0.0457764, -0.0305176, 0, 0
136814123, 0.0251221, 0.0259424, 0.0129199, 0.0154834, 0.112534, 7.58134, -6.85721, -0.0915527, -0.0152588, 0, 0, 0
136814133, 0.0251221, 0.0263525, 0.0129199, 0.0129199, 0.110087, 7.56422, -6.86211, -0.0610352, -0.0762939, -0.0457764, 0, 0
136814143, 0.0241992, 0.0221484, 0.0133301, 0.0133301, 0.112534, 7.55933, -6.86211, -0.0152588, -0.0610352, 0, 0, 0
136814153, 0.0225586, 0.0267627, 0.0120996, 0.0133301, 0.11498, 7.57156, -6.84743, -0.0762939, 0, 0, 0, 0
136814163, 0.0251221, 0.0233789, 0.0137402, 0.0145605, 0.100302, 7.57156, -6.85232, -0.12207, 0.0762939, -0.0305176, 0, 0
136814183, 0.0247119, 0.0247119, 0.0145605, 0.0145605, 0.110087, 7.55933, -6.86211, -0.0610352, -0.0152588, -0.0152588, 0, 0
136814193, 0.0229687, 0.0247119, 0.0150732, 0.0133301, 0.102748, 7.56177, -6.87679, -0.12207, 0.0305176, -0.0152588, 0, 0
136814203, 0.0247119, 0.0251221, 0.0141504, 0.0133301, 0.112534, 7.56177, -6.85721, -0.0915527, 0.0305176, -0.0305176, 0, 0
136814213, 0.0225586, 0.0263525, 0.0137402, 0.0150732, 0.105195, 7.55933, -6.86211, -0.106812, 0.0305176, -0.0152588, 0, 0
136814223, 0.0259424, 0.0263525, 0.0133301, 0.0141504, 0.105195, 7.5471, -6.85721, -0.0915527, -0.0610352, 0.0152588, 0, 0
136814233, 0.0259424, 0.0255322, 0.0133301, 0.0129199, 0.102748, 7.55933, -6.85966, -0.0610352, 0, 0.0457764, 0, 0
136814243, 0.0229687, 0.0229687, 0.0133301, 0.0150732, 0.110087, 7.58379, -6.85477, -0.152588, -0.0610352, -0.0152588, 0, 0
136814263, 0.0237891, 0.0237891, 0.0137402, 0.0141504, 0.100302, 7.55933, -6.85966, -0.137329, 0.137329, 0, 0, 0
136814273, 0.020918, 0.0237891, 0.0133301, 0.0137402, 0.110087, 7.55688, -6.85721, -0.0610352, 0.0305176, 0.0152588, 0, 0
136814283, 0.0255322, 0.0284033, 0.0145605, 0.0163037, 0.122319, 7.56177, -6.85721, -0.0915527, -0.0610352, 0.0152588, 0, 0
136814293, 0.0255322, 0.0271729, 0.0145605, 0.0133301, 0.117426, 7.5471, -6.867, -0.167847, 0.0152588, 0, 0, 0
136814303, 0.0217383, 0.0255322, 0.0141504, 0.0158936, 0.112534, 7.55199, -6.85966, -0.137329, -0.0152588, 0.0305176, 0, 0
136814313, 0.0225586, 0.0247119, 0.0141504, 0.0158936, 0.119873, 7.55688, -6.85721, -0.12207, -0.0457764, -0.0762939, 0, 0
136814323, 0.0229687, 0.0259424, 0.0133301, 0.017124, 0.110087, 7.55443, -6.86455, -0.106812, 0.0457764, -0.0305176, 0, 0
136814333, 0.0233789, 0.0259424, 0.0154834, 0.0129199, 0.117426, 7.5471, -6.86455, -0.106812, -0.12207, 0.0152588, 0, 0
136814353, 0.0247119, 0.0267627, 0.0120996, 0.0145605, 0.122319, 7.55688, -6.84498, -0.183105, 0.0457764, 0.0305176, 0, 0
136814363, 0.0247119, 0.0251221, 0.0133301, 0.0145605, 0.124766, 7.54954, -6.85232, -0.152588, -0.0152588, 0.0305176, 0, 0
136814373, 0.0237891, 0.0267627, 0.0116895, 0.0150732, 0.105195, 7.55688, -6.85966, 0, -0.0457764, 0.0152588, 0, 0
136814383, 0.0233789, 0.0267627, 0.0158936, 0.0175342, 0.122319, 7.56177, -6.85721, -0.183105, 0, 0, 0, 0
136814393, 0.0233789, 0.0225586, 0.0158936, 0.0154834, 0.122319, 7.55443, -6.85232, -0.0762939, 0.0152588, -0.0305176, 0, 0
136814403, 0.0229687, 0.0251221, 0.0145605, 0.0154834, 0.119873, 7.56177, -6.87189, -0.0915527, 0.0152588, 0.0457764, 0, 0
136814413, 0.0237891, 0.0255322, 0.0125098, 0.0154834, 0.11498, 7.56667, -6.86455, -0.0762939, 0, -0.0152588, 0, 0
136814423, 0.0217383, 0.0247119, 0.0158936, 0.0141504, 0.105195, 7.56911, -6.86455, -0.0305176, -0.0610352, -0.0610352, 0, 0
136814443, 0.0233789, 0.0233789, 0.0125098, 0.019585, 0.117426, 7.56911, -6.85232, -0.137329, 0.0152588, -0.0152588, 0, 0
136814453, 0.0233789, 0.027583, 0.0129199, 0.0133301, 0.110087, 7.56911, -6.85721, -0.106812, -0.0305176, -0.0762939, 0, 0
136814463, 0.0229687, 0.0259424, 0.0133301, 0.0133301, 0.112534, 7.57156, -6.85966, -0.0915527, -0.0152588, -0.0305176, 0, 0
136814473, 0.0233789, 0.0251221, 0.0112793, 0.0145605, 0.134551, 7.56911, -6.85966, -0.106812, 0, -0.0305176, 0, 0
136814483, 0.0221484, 0.0251221, 0.0129199, 0.0167139, 0.107641, 7.56911, -6.85966, -0.137329, -0.0305176, -0.0152588, 0, 0
136814493, 0.0247119, 0.0255322, 0.0133301, 0.0150732, 0.100302, 7.55443, -6.88168, -0.0915527, 0.0152588, -0.0457764, 0, 0
136814503, 0.0247119, 0.0259424, 0.0133301, 0.0150732, 0.119873, 7.55933, -6.867, -0.0915527, -0.0305176, 0, 0, 0
136814523, 0.0251221, 0.027583, 0.0141504, 0.0158936, 0.110087, 7.56177, -6.84988, -0.137329, 0.0457764, 0.0152588, 0, 0
136814533, 0.0233789, 0.027583, 0.0150732, 0.0167139, 0.102748, 7.56177, -6.85966, -0.0610352, 0.0305176, -0.0610352, 0, 0
136814543, 0.0241992, 0.0237891, 0.0141504, 0.0154834, 0.107641, 7.56667, -6.87189, -0.0762939, -0.0305176, 0.0305176, 0, 0
136814553, 0.0241992, 0.0247119, 0.0141504, 0.0163037, 0.112534, 7.55933, -6.85477, -0.0610352, 0.0305176, -0.0305176, 0, 0
136814563, 0.0251221, 0.0263525, 0.0125098, 0.017124, 0.110087, 7.56177, -6.85477, -0.0915527, -0.0152588, 0, 0, 0
136814573, 0.0237891, 0.0271729, 0.0154834, 0.017124, 0.11498, 7.56422, -6.867, -0.0610352, 0.0457764, 0.0152588, 0, 0
136814583, 0.0237891, 0.0247119, 0.0120996, 0.0150732, 0.107641, 7.55443, -6.86211, -0.0915527, 0.0762939, -0.0305176, 0, 0
136814593, 0.0233789, 0.0247119, 0.0125098, 0.0141504, 0.112534, 7.55443, -6.85966, -0.0610352, 0, -0.0152588, 0, 0
136814613, 0.0229687, 0.0263525, 0.0150732, 0.0163037, 0.122319, 7.56667, -6.84988, -0.106812, 0.0457764, -0.0152588, 0, 0
136814623, 0.0229687, 0.0255322, 0.0150732, 0.0163037, 0.102748, 7.57156, -6.87923, 0.0152588, -0.0762939, 0, 0, 0
136814633, 0.0251221, 0.027583, 0.0141504, 0.0141504, 0.107641, 7.56422, -6.86945, -0.12207, -0.106812, 0, 0, 0
136814643, 0.0255322, 0.027583, 0.0129199, 0.0158936, 0.124766, 7.56422, -6.85966, -0.137329, 0.0305176, 0.0152588, 0, 0
136814653, 0.0233789, 0.0259424, 0.0129199, 0.0158936, 0.117426, 7.57156, -6.867, -0.106812, -0.0152588, 0, 0, 0
136814663, 0.0233789, 0.0271729, 0.0133301, 0.0137402, 0.107641, 7.55688, -6.85966, -0.0762939, 0.0152588, 0, 0, 0
136814673, 0.0251221, 0.0255322, 0.0125098, 0.0137402, 0.119873, 7.55199, -6.87434, -0.12207, 0.0305176, 0, 0, 0
136814693, 0.0229687, 0.0255322, 0.0137402, 0.0150732, 0.105195, 7.55688, -6.86211, -0.0610352, 0.0152588, -0.0152588, 0, 0
136814703, 0.0247119, 0.0263525, 0.0137402, 0.0133301, 0.110087, 7.57645, -6.85232, -0.137329, -0.0152588, -0.0152588, 0, 0
136814713, 0.0247119, 0.0255322, 0.0137402, 0.0158936, 0.110087, 7.54954, -6.85721, -0.0762939, -0.0762939, -0.0762939, 0, 0
136814723, 0.0237891, 0.0237891, 0.0154834, 0.0158936, 0.122319, 7.55199, -6.85721, -0.12207, -0.0305176, -0.0457764, 0, 0
136814733, 0.0241992, 0.0263525, 0.0129199, 0.0150732, 0.127212, 7.56422, -6.87434, -0.0915527, -0.0152588, -0.0152588, 0, 0
136814743, 0.0221484, 0.0263525, 0.0129199, 0.0163037, 0.127212, 7.55199, -6.85232, -0.0762939, -0.0457764, -0.0152588, 0, 0
136814753, 0.0213281, 0.0271729, 0.0141504, 0.0163037, 0.102748, 7.56667, -6.86211, -0.0610352, 0.0457764, -0.0152588, 0, 0
136814763, 0.0213281, 0.0241992, 0.0141504, 0.0133301, 0.107641, 7.57156, -6.86455, -0.0457764, -0.0610352, -0.0457764, 0, 0
136814783, 0.0247119, 0.0259424, 0.0125098, 0.0154834, 0.110087, 7.57645, -6.86945, -0.0152588, -0.0457764, 0, 0, 0
136814793, 0.0229687, 0.0255322, 0.0145605, 0.0145605, 0.110087, 7.56177, -6.87189, -0.0762939, -0.0305176, 0, 0, 0
136814803, 0.0259424, 0.0255322, 0.0150732, 0.0154834, 0.107641, 7.56422, -6.86945, 0, 0.0152588, 0, 0, 0
136814813, 0.0259424, 0.0247119, 0.0150732, 0.0158936, 0.117426, 7.55933, -6.84988, -0.12207, -0.0457764, -0.0152588, 0, 0
136814823, 0.0259424, 0.0271729, 0.0129199, 0.0175342, 0.100302, 7.56667, -6.86211, -0.12207, 0, 0.0457764, 0, 0
136814833, 0.0233789, 0.0237891, 0.0133301, 0.0175342, 0.112534, 7.55933, -6.85477, -0.0915527, -0.0152588, 0, 0, 0
136814843, 0.0225586, 0.0255322, 0.0141504, 0.0150732, 0.11498, 7.55688, -6.85721, -0.137329, -0.0152588, -0.0610352, 0, 0
136814863, 0.0225586, 0.0259424, 0.0133301, 0.0125098, 0.110087, 7.56422, -6.86211, -0.12207, -0.0762939, -0.0915527, 0, 0
136814873, 0.0225586, 0.0221484, 0.0150732, 0.0163037, 0.105195, 7.56667, -6.84743, -0.106812, -0.0305176, -0.0152588, 0, 0
136814883, 0.0225586, 0.0247119, 0.0141504, 0.0163037, 0.110087, 7.5471, -6.87189, -0.0915527, -0.0610352, 0.0610352, 0, 0
136814893, 0.0221484, 0.0263525, 0.0133301, 0.0158936, 0.112534, 7.56177, -6.85232, -0.167847, -0.0152588, 0, 0, 0
136814903, 0.0247119, 0.0263525, 0.0116895, 0.0120996, 0.122319, 7.55933, -6.86211, -0.12207, -0.0305176, -0.0305176, 0, 0
136814913, 0.0229687, 0.0255322, 0.0116895, 0.0141504, 0.117426, 7.56177, -6.85966, -0.12207, -0.0762939, 0.0305176, 0, 0
136814923, 0.0229687, 0.0259424, 0.0116895, 0.0175342, 0.102748, 7.56177, -6.85721, -0.0915527, 0.0305176, -0.0152588, 0, 0
136814933, 0.0233789, 0.0233789, 0.0150732, 0.0175342, 0.105195, 7.56911, -6.867, -0.0610352, -0.0305176, 0.0305176, 0, 0
136814953, 0.0247119, 0.027583, 0.0129199, 0.0163037, 0.100302, 7.56911, -6.88168, -0.0610352, 0.0762939, -0.0610352, 0, 0
136814963, 0.0233789, 0.0263525, 0.0129199, 0.0158936, 0.105195, 7.55443, -6.87434, -0.0762939, -0.0305176, -0.0305176, 0, 0
136814973, 0.0233789, 0.0255322, 0.0129199, 0.0179443, 0.119873, 7.57156, -6.84988, -0.0610352, -0.0457764, -0.0762939, 0, 0
136814983, 0.0237891, 0.0233789, 0.0137402, 0.0154834, 0.100302, 7.55933, -6.85477, -0.167847, 0.0305176, -0.0457764, 0, 0
136814993, 0.0251221, 0.0255322, 0.0137402, 0.0154834, 0.110087, 7.55688, -6.867, 0, -0.0152588, 0.0305176, 0, 0
136815003, 0.0255322, 0.0255322, 0.0120996, 0.0154834, 0.112534, 7.56422, -6.87679, -0.106812, 0.0762939, -0.0152588, 0, 0
136815013, 0.0229687, 0.0255322, 0.0154834, 0.0137402, 0.129658, 7.55933, -6.86945, -0.137329, 0, 0, 0, 0
136815033, 0.0233789, 0.0237891, 0.0120996, 0.0163037, 0.117426, 7.55688, -6.86455, -0.0305176, 0, 0.0305176, 0, 0
136815043, 0.0229687, 0.0255322, 0.010459, 0.0163037, 0.11498, 7.56422, -6.86211, -0.0915527, -0.0305176, -0.0305176, 0, 0
136815053, 0.0229687, 0.0225586, 0.0158936, 0.0120996, 0.110087, 7.56667, -6.87679, -0.0610352, 0, 0, 0, 0
136815063, 0.0205078, 0.0225586, 0.0141504, 0.0141504, 0.112534, 7.55688, -6.85477, -0.0610352, 0, -0.0305176, 0, 0
136815073, 0.0241992, 0.0241992, 0.0141504, 0.0137402, 0.117426, 7.53731, -6.85232, -0.0915527, -0.0457764, 0, 0, 0
136815083, 0.0241992, 0.0255322, 0.0108691, 0.0125098, 0.102748, 7.5471, -6.85232, -0.12207, -0.0457764, -0.0305176, 0, 0
136815093, 0.0233789, 0.0241992, 0.0145605, 0.0125098, 0.124766, 7.57401, -6.84498, -0.106812, -0.0152588, 0, 0, 0
136815103, 0.0237891, 0.0255322, 0.0145605, 0.0133301, 0.122319, 7.56422, -6.84498, -0.152588, 0.0610352, 0, 0, 0
136815123, 0.0241992, 0.0247119, 0.0137402, 0.0179443, 0.107641, 7.55443, -6.85721, -0.0762939, -0.12207, 0.0152588, 0, 0
136815133, 0.0241992, 0.0237891, 0.0137402, 0.0133301, 0.117426, 7.56177, -6.85966, -0.0610352, -0.0610352, -0.0305176, 0, 0
136815143, 0.0229687, 0.0241992, 0.0141504, 0.0133301, 0.112534, 7.55933, -6.86945, -0.137329, -0.0457764, 0.0305176, 0, 0
136815153, 0.0247119, 0.0263525, 0.0150732, 0.0137402, 0.11498, 7.57645, -6.86211, -0.0762939, 0.0152588, 0.0152588, 0, 0
136815163, 0.0247119, 0.0263525, 0.0137402, 0.0167139, 0.11498, 7.57156, -6.86945, -0.137329, 0.0762939, -0.106812, 0, 0
136815173, 0.0241992, 0.0247119, 0.0150732, 0.0183545, 0.110087, 7.57401, -6.86455, -0.106812, -0.0152588, 0.0305176, 0, 0
136815183, 0.0241992, 0.0259424, 0.0150732, 0.0158936, 0.102748, 7.56422, -6.867, -0.0610352, 0.0305176, 0.0152588, 0, 0
136815203, 0.0221484, 0.0241992, 0.0137402, 0.0163037, 0.102748, 7.55199, -6.867, -0.0305176, -0.0610352, 0, 0, 0
136815213, 0.0233789, 0.0241992, 0.0108691, 0.0150732, 0.119873, 7.56422, -6.86455, -0.0915527, -0.0305176, -0.0457764, 0, 0
136815223, 0.0247119, 0.0229687, 0.0154834, 0.0158936, 0.11498, 7.55199, -6.867, -0.137329, -0.0610352, 0.0305176, 0, 0
136815233, 0.0233789, 0.0259424, 0.0154834, 0.0158936, 0.117426, 7.55933, -6.867, -0.0915527, -0.0152588, -0.0152588, 0, 0
136815243, 0.0233789, 0.0241992, 0.0145605, 0.0163037, 0.117426, 7.56422, -6.87189, -0.167847, -0.0457764, -0.0305176, 0, 0
136815253, 0.0251221, 0.0247119, 0.0141504, 0.0163037, 0.110087, 7.56911, -6.87189, -0.137329, -0.0610352, 0, 0, 0
136815263, 0.0237891, 0.0247119, 0.0163037, 0.0133301, 0.129658, 7.56422, -6.85966, -0.0457764, -0.0152588, 0.0305176, 0, 0
136815273, 0.0237891, 0.0247119, 0.0133301, 0.0145605, 0.11498, 7.55199, -6.87434, -0.12207, 0.0915527, 0.0305176, 0, 0
136815293, 0.0247119, 0.0267627, 0.0137402, 0.0133301, 0.105195, 7.57156, -6.86455, -0.0915527, -0.0457764, 0.0305176, 0, 0
136815303, 0.0229687, 0.0267627, 0.0133301, 0.0133301, 0.110087, 7.56667, -6.86945, -0.106812, 0.0610352, -0.0305176, 0, 0
136815313, 0.0229687, 0.0251221, 0.0133301, 0.0133301, 0.119873, 7.55688, -6.84988, -0.183105, -0.0152588, -0.0610352, 0, 0
136815323, 0.0241992, 0.0251221, 0.0137402, 0.0167139, 0.119873, 7.55443, -6.86211, -0.0762939, 0.0457764, 0.0152588, 0, 0
136815333, 0.0247119, 0.0251221, 0.0125098, 0.0150732, 0.095409, 7.55443, -6.85721, -0.0305176, 0.0457764, -0.0457764, 0, 0
136815343, 0.0247119, 0.0263525, 0.0125098, 0.0154834, 0.102748, 7.55199, -6.87679, -0.106812, -0.0610352, -0.0152588, 0, 0
136815353, 0.0251221, 0.0259424, 0.0129199, 0.0154834, 0.117426, 7.56177, -6.85721, -0.106812, 0, -0.0457764, 0, 0
136815373, 0.0225586, 0.0259424, 0.0125098, 0.0150732, 0.119873, 7.55933, -6.86211, -0.0152588, -0.0915527, 0.0152588, 0, 0
136815383, 0.0259424, 0.0263525, 0.0141504, 0.0150732, 0.095409, 7.56422, -6.8352, -0.0762939, -0.106812, -0.0152588, 0, 0
136815393, 0.0259424, 0.0251221, 0.0141504, 0.0187646, 0.107641, 7.55199, -6.85721, -0.0762939, -0.0610352, -0.0457764, 0, 0
136815403, 0.0251221, 0.0241992, 0.0120996, 0.0150732, 0.122319, 7.5422, -6.85477, -0.106812, -0.0610352, -0.0610352, 0, 0
136815413, 0.0225586, 0.0241992, 0.0133301, 0.0150732, 0.110087, 7.57156, -6.85232, -0.0915527, 0.0457764, 0.0457764, 0, 0
136815423, 0.0213281, 0.0241992, 0.0145605, 0.0141504, 0.0880698, 7.57156, -6.85966, -0.106812, 0.0152588, -0.0457764, 0, 0
136815433, 0.0233789, 0.0251221, 0.0145605, 0.0150732, 0.119873, 7.5471, -6.83764, -0.137329, -0.0305176, -0.0915527, 0, 0
136815443, 0.0251221, 0.0255322, 0.0145605, 0.0145605, 0.110087, 7.55688, -6.87434, -0.0762939, -0.0305176, 0.0152588, 0, 0
136815463, 0.0225586, 0.027583, 0.0137402, 0.0154834, 0.127212, 7.54954, -6.84498, -0.0762939, -0.0610352, -0.0457764, 0, 0
136815473, 0.0213281, 0.0237891, 0.0125098, 0.0137402, 0.110087, 7.56422, -6.84009, -0.0762939, -0.0305176, -0.0152588, 0, 0
136815483, 0.0217383, 0.0237891, 0.0137402, 0.0129199, 0.112534, 7.56177, -6.86945, -0.0457764, -0.106812, -0.0152588, 0, 0
136815493, 0.0259424, 0.0237891, 0.0137402, 0.0154834, 0.112534, 7.55933, -6.86455, -0.106812, 0.0915527, 0.0915527, 0, 0
136815503, 0.0259424, 0.0279932, 0.0158936, 0.0129199, 0.117426, 7.56422, -6.87189, -0.152588, 0, -0.0305176, 0, 0
136815513, 0.0233789, 0.0255322, 0.0129199, 0.0129199, 0.117426, 7.56422, -6.86211, -0.0610352, 0.0152588, -0.0152588, 0, 0
136815523, 0.0247119, 0.0251221, 0.0129199, 0.0158936, 0.112534, 7.55443, -6.86211, -0.0610352, -0.0762939, -0.0305176, 0, 0
136815543, 0.0237891, 0.0251221, 0.0141504, 0.0158936, 0.129658, 7.56667, -6.87679, -0.0610352, -0.0305176, 0.0610352, 0, 0
136815553, 0.0237891, 0.0251221, 0.0141504, 0.0163037, 0.112534, 7.56911, -6.87189, -0.0610352, 0.0152588, -0.0305176, 0, 0
136815563, 0.0237891, 0.0247119, 0.0145605, 0.0163037, 0.110087, 7.55933, -6.86945, -0.0457764, 0.0762939, 0.0152588, 0, 0
136815573, 0.0247119, 0.0247119, 0.0141504, 0.0150732, 0.112534, 7.56667, -6.85966, -0.0610352, -0.0457764, 0.0305176, 0, 0
136815583, 0.0247119, 0.0247119, 0.0141504, 0.0154834, 0.102748, 7.54954, -6.867, -0.12207, 0, -0.0457764, 0, 0
136815593, 0.0255322, 0.0259424, 0.0129199, 0.0150732, 0.119873, 7.55688, -6.86455, -0.0915527, 0.0305176, -0.0305176, 0, 0
136815603, 0.0255322, 0.0237891, 0.0129199, 0.0141504, 0.119873, 7.55443, -6.86455, -0.183105, 0, 0.0457764, 0, 0
136815613, 0.0255322, 0.0225586, 0.0120996, 0.0158936, 0.110087, 7.55688, -6.85232, -0.0610352, -0.0305176, 0.0152588, 0, 0
136815633, 0.0237891, 0.0241992, 0.0137402, 0.0133301, 0.102748, 7.55933, -6.85477, -0.106812, 0.0457764, -0.0152588, 0, 0
136815683, 0.0247119, 0.0237891, 0.0145605, 0.0154834, 0.119873, 7.55199, -6.85966, -0.198364, 0.0610352, 0.0152588, 0, 0
136815693, 0.0221484, 0.0237891, 0.0141504, 0.0141504, 0.110087, 7.56422, -6.86945, -0.0915527, -0.0152588, -0.0457764, 0, 0
136815703, 0.0241992, 0.0241992, 0.0141504, 0.0150732, 0.112534, 7.56667, -6.86455, -0.0457764, -0.0305176, 0.0305176, 0, 0
136815713, 0.0241992, 0.0271729, 0.0125098, 0.0154834, 0.107641, 7.5789, -6.85721, -0.106812, 0.0152588, -0.0305176, 0, 0
136815723, 0.0221484, 0.0263525, 0.0133301, 0.0154834, 0.11498, 7.56667, -6.85477, -0.0305176, 0.0305176, 0.0305176, 0, 0
136815743, 0.0221484, 0.0263525, 0.0129199, 0.0158936, 0.112534, 7.56667, -6.85721, -0.152588, -0.0152588, 0, 0, 0
136815753, 0.0229687, 0.0237891, 0.0129199, 0.0158936, 0.112534, 7.55933, -6.85966, -0.0457764, 0.0152588, -0.0457764, 0, 0
136815763, 0.0229687, 0.0263525, 0.0137402, 0.0150732, 0.105195, 7.54954, -6.85721, -0.0610352, 0.0152588, 0.0762939, 0, 0
136815773, 0.0247119, 0.0247119, 0.0141504, 0.0150732, 0.11498, 7.56177, -6.84743, -0.0457764, 0.0610352, -0.0610352, 0, 0
136815783, 0.0221484, 0.0255322, 0.0150732, 0.0163037, 0.117426, 7.56177, -6.86211, -0.0915527, -0.0152588, -0.0762939, 0, 0
136815793, 0.0255322, 0.0255322, 0.0112793, 0.0141504, 0.102748, 7.55933, -6.85232, -0.0610352, -0.0457764, 0.0457764, 0, 0
136815803, 0.0225586, 0.0247119, 0.0112793, 0.0163037, 0.107641, 7.56667, -6.85966, -0.0305176, -0.0152588, -0.0305176, 0, 0
136815813, 0.0225586, 0.0259424, 0.0112793, 0.0129199, 0.107641, 7.55199, -6.85721, -0.0305176, -0.0152588, -0.0610352, 0, 0
136815833, 0.0241992, 0.0247119, 0.0137402, 0.0150732, 0.107641, 7.57156, -6.84498, -0.0915527, -0.0610352, 0.0915527, 0, 0
136815843, 0.0241992, 0.0247119, 0.0137402, 0.0150732, 0.100302, 7.55933, -6.86945, -0.0762939, 0, -0.0457764, 0, 0
136815853, 0.0221484, 0.0251221, 0.0137402, 0.0167139, 0.095409, 7.54465, -6.87189, -0.0762939, 0, -0.0457764, 0, 0
136815863, 0.0233789, 0.0233789, 0.0137402, 0.0154834, 0.119873, 7.56911, -6.867, -0.0915527, -0.0610352, 0, 0, 0
136815873, 0.0233789, 0.0271729, 0.0137402, 0.0163037, 0.107641, 7.57156, -6.85477, -0.0762939, -0.0915527, -0.0610352, 0, 0
136815883, 0.0225586, 0.0267627, 0.0150732, 0.0163037, 0.0905162, 7.56177, -6.84743, -0.0762939, 0.0305176, 0.0457764, 0, 0
136815893, 0.0205078, 0.0267627, 0.0141504, 0.0150732, 0.105195, 7.55688, -6.85721, -0.0610352, 0.0305176, -0.0152588, 0, 0
136815913, 0.0233789, 0.0251221, 0.0150732, 0.0150732, 0.110087, 7.56422, -6.85477, -0.0762939, 0.0305176, 0.0152588, 0, 0
136815923, 0.0233789, 0.0251221, 0.0133301, 0.0167139, 0.110087, 7.56911, -6.85477, -0.137329, -0.0457764, 0.0610352, 0, 0
136815933, 0.0237891, 0.0241992, 0.0133301, 0.0167139, 0.110087, 7.57401, -6.85721, -0.0762939, 0.0610352, -0.0152588, 0, 0
136815943, 0.0237891, 0.0255322, 0.0137402, 0.0137402, 0.110087, 7.55443, -6.85477, -0.0457764, -0.0152588, -0.0457764, 0, 0
136815953, 0.0217383, 0.0255322, 0.0158936, 0.0158936, 0.127212, 7.58379, -6.85721, -0.12207, -0.0457764, -0.0305176, 0, 0
136815963, 0.0225586, 0.0251221, 0.0158936, 0.0141504, 0.11498, 7.56177, -6.85721, -0.0152588, -0.0457764, 0, 0, 0
136815973, 0.0225586, 0.0237891, 0.0120996, 0.0137402, 0.102748, 7.56422, -6.867, -0.0610352, 0.0457764, -0.0305176, 0, 0
136815983, 0.0237891, 0.0267627, 0.0150732, 0.0137402, 0.124766, 7.57401, -6.85721, -0.0610352, -0.0610352, -0.0152588, 0, 0
136816003, 0.0229687, 0.0229687, 0.0116895, 0.0158936, 0.110087, 7.56667, -6.85966, -0.106812, 0, 0, 0, 0
136816013, 0.0247119, 0.0255322, 0.0150732, 0.0163037, 0.100302, 7.57156, -6.86945, -0.106812, -0.0457764, 0.0610352, 0, 0
136816023, 0.0247119, 0.0251221, 0.0150732, 0.0150732, 0.105195, 7.56177, -6.87679, -0.0762939, -0.0152588, 0.0305176, 0, 0
136816033, 0.0241992, 0.0241992, 0.0133301, 0.0163037, 0.110087, 7.5471, -6.85966, -0.0762939, -0.0610352, -0.0305176, 0, 0
136816043, 0.0237891, 0.0241992, 0.0145605, 0.0163037, 0.124766, 7.55933, -6.85721, -0.198364, 0.0152588, -0.0305176, 0, 0
136816053, 0.0205078, 0.0241992, 0.0137402, 0.0145605, 0.107641, 7.56177, -6.867, -0.137329, -0.0457764, 0, 0, 0
136816063, 0.0241992, 0.0263525, 0.0154834, 0.0141504, 0.122319, 7.56667, -6.85232, -0.12207, 0.0152588, -0.0457764, 0, 0
136816083, 0.0251221, 0.0251221, 0.0150732, 0.0163037, 0.107641, 7.56177, -6.87189, -0.0915527, 0, -0.0305176, 0, 0
136816093, 0.0229687, 0.0247119, 0.0137402, 0.0163037, 0.117426, 7.56177, -6.85721, -0.137329, -0.0152588, 0.0305176, 0, 0
136816103, 0.0233789, 0.0247119, 0.0150732, 0.0137402, 0.110087, 7.55933, -6.86211, -0.0457764, -0.0152588, 0.0457764, 0, 0
136816113, 0.0251221, 0.0233789, 0.017124, 0.0150732, 0.117426, 7.56667, -6.87189, -0.0915527, 0.0457764, 0.0152588, 0, 0
136816123, 0.0241992, 0.0259424, 0.017124, 0.0141504, 0.0978554, 7.56422, -6.85232, -0.0915527, 0.0457764, -0.0305176, 0, 0
136816133, 0.0241992, 0.0241992, 0.0163037, 0.0137402, 0.119873, 7.56667, -6.86455, -0.0457764, 0, -0.0610352, 0, 0
136816143, 0.0247119, 0.0241992, 0.0137402, 0.0137402, 0.112534, 7.55199, -6.86945, -0.0762939, -0.0457764, -0.0305176, 0, 0
136816153, 0.0229687, 0.0247119, 0.0141504, 0.0150732, 0.11498, 7.55199, -6.85477, -0.0305176, 0, -0.0762939, 0, 0
136816173, 0.0205078, 0.0255322, 0.0129199, 0.0154834, 0.110087, 7.55688, -6.85721, -0.106812, -0.0762939, -0.0457764, 0, 0
136816183, 0.0205078, 0.0255322, 0.0145605, 0.0145605, 0.110087, 7.57645, -6.867, -0.0915527, 0.0305176, 0.0305176, 0, 0
136816193, 0.0251221, 0.0251221, 0.0108691, 0.0145605, 0.11498, 7.56911, -6.85966, -0.106812, 0.0457764, -0.0152588, 0, 0
136816203, 0.0247119, 0.0251221, 0.0133301, 0.0175342, 0.127212, 7.56667, -6.84009, -0.0610352, 0, 0.0305176, 0, 0
136816213, 0.0241992, 0.0251221, 0.0129199, 0.0154834, 0.110087, 7.56177, -6.88412, -0.0915527, -0.0152588, 0, 0, 0
136816223, 0.0247119, 0.0237891, 0.0120996, 0.0175342, 0.0905162, 7.55443, -6.87189, -0.152588, -0.0152588, 0, 0, 0
136816233, 0.0247119, 0.0241992, 0.0120996, 0.0154834, 0.110087, 7.56177, -6.86945, -0.0915527, 0.0305176, 0, 0, 0
136816253, 0.0237891, 0.0229687, 0.0125098, 0.0150732, 0.107641, 7.57156, -6.87434, -0.0762939, -0.0915527, 0.0305176, 0, 0
136816263, 0.0255322, 0.0229687, 0.0141504, 0.0158936, 0.0856234, 7.5789, -6.87189, -0.0915527, -0.0610352, -0.0610352, 0, 0
136816273, 0.0241992, 0.0247119, 0.0141504, 0.0150732, 0.119873, 7.56422, -6.867, -0.0610352, -0.0152588, 0, 0, 0
136816283, 0.0241992, 0.0259424, 0.0141504, 0.0158936, 0.112534, 7.56422, -6.85477, -0.0915527, -0.0762939, -0.0457764, 0, 0
136816293, 0.0241992, 0.0267627, 0.0141504, 0.0154834, 0.117426, 7.5471, -6.84498, -0.0762939, 0.106812, 0.0305176, 0, 0
136816303, 0.0241992, 0.0251221, 0.0133301, 0.0154834, 0.11498, 7.55688, -6.84254, -0.0610352, -0.0457764, -0.0457764, 0, 0
136816313, 0.0259424, 0.0251221, 0.0108691, 0.0154834, 0.105195, 7.55443, -6.87923, -0.152588, 0.0152588, 0.0305176, 0, 0
136816323, 0.0229687, 0.0255322, 0.0154834, 0.0183545, 0.119873, 7.55199, -6.86945, -0.106812, -0.0762939, 0.0305176, 0, 0
136816343, 0.0247119, 0.0267627, 0.0154834, 0.0150732, 0.107641, 7.57401, -6.86211, -0.106812, -0.0305176, 0.0457764, 0, 0
136816353, 0.0241992, 0.0229687, 0.0120996, 0.0150732, 0.107641, 7.55688, -6.86211, -0.0762939, 0.0305176, 0.0915527, 0, 0
136816363, 0.0225586, 0.0255322, 0.0129199, 0.0145605, 0.110087, 7.56177, -6.85966, -0.0610352, 0, -0.0457764, 0, 0
136816373, 0.0251221, 0.0255322, 0.0145605, 0.0154834, 0.105195, 7.56177, -6.86945, -0.0305176, -0.0610352, 0.0457764, 0, 0
136816383, 0.0233789, 0.0259424, 0.0145605, 0.0158936, 0.102748, 7.54954, -6.87923, -0.0610352, -0.0305176, -0.0457764, 0, 0
136816393, 0.0233789, 0.0251221, 0.0125098, 0.0141504, 0.095409, 7.55443, -6.85721, -0.12207, 0.0152588, 0.0305176, 0, 0
136816403, 0.0237891, 0.0259424, 0.0125098, 0.0141504, 0.100302, 7.56667, -6.86211, -0.106812, -0.0610352, -0.0457764, 0, 0
136816423, 0.0241992, 0.0251221, 0.0154834, 0.0133301, 0.105195, 7.55688, -6.87923, -0.12207, 0.0305176, -0.0152588, 0, 0
136816433, 0.0229687, 0.0241992, 0.0163037, 0.0145605, 0.110087, 7.55688, -6.87189, -0.0762939, -0.0457764, 0.0152588, 0, 0
136816443, 0.0229687, 0.0263525, 0.0163037, 0.0150732, 0.110087, 7.56177, -6.86945, 0, -0.0610352, -0.0305176, 0, 0
136816453, 0.0229687, 0.0247119, 0.0133301, 0.0150732, 0.107641, 7.56422, -6.87189, -0.0305176, 0, 0, 0, 0
136816463, 0.0217383, 0.0259424, 0.0129199, 0.0154834, 0.107641, 7.54465, -6.84743, -0.0915527, -0.0152588, -0.0610352, 0, 0
136816473, 0.0233789, 0.0259424, 0.0141504, 0.0150732, 0.100302, 7.55199, -6.83764, -0.0762939, -0.0457764, 0.0152588, 0, 0
136816483, 0.0263525, 0.0233789, 0.0137402, 0.0179443, 0.110087, 7.55933, -6.86455, -0.106812, 0.0305176, 0, 0, 0
136816493, 0.0233789, 0.0229687, 0.0137402, 0.0129199, 0.095409, 7.55933, -6.87189, -0.0915527, -0.0152588, -0.0305176, 0, 0
136816513, 0.0241992, 0.0247119, 0.0145605, 0.0145605, 0.0978554, 7.56667, -6.87434, -0.12207, -0.0457764, 0.0152588, 0, 0
136816523, 0.0221484, 0.0247119, 0.0125098, 0.0154834, 0.11498, 7.56667, -6.85232, -0.106812, 0, -0.0152588, 0, 0
136816533, 0.0221484, 0.0241992, 0.0141504, 0.0163037, 0.122319, 7.55688, -6.867, -0.0762939, 0.0610352, 0, 0, 0
136816543, 0.0263525, 0.0229687, 0.0141504, 0.0150732, 0.110087, 7.58379, -6.87189, -0.0762939, -0.0305176, -0.0762939, 0, 0
136816553, 0.0263525, 0.0241992, 0.0137402, 0.0137402, 0.132105, 7.56177, -6.85721, -0.0915527, 0.0305176, -0.0457764, 0, 0
136816563, 0.0225586, 0.0263525, 0.0175342, 0.0137402, 0.0929626, 7.55933, -6.86945, -0.152588, -0.0762939, 0, 0, 0
136816573, 0.0229687, 0.0263525, 0.0108691, 0.0150732, 0.107641, 7.55688, -6.85721, -0.0305176, 0.0152588, 0.0305176, 0, 0
136816593, 0.0225586, 0.0259424, 0.0129199, 0.0141504, 0.119873, 7.56667, -6.867, -0.0915527, 0.0305176, -0.0457764, 0, 0
136816603, 0.0225586, 0.0225586, 0.0125098, 0.0183545, 0.124766, 7.56911, -6.85966, -0.106812, 0.0305176, -0.0457764, 0, 0
136816613, 0.0229687, 0.0259424, 0.0145605, 0.0183545, 0.11498, 7.56422, -6.85966, -0.0915527, -0.0305176, 0, 0, 0
136816623, 0.0251221, 0.0247119, 0.0141504, 0.0175342, 0.119873, 7.54954, -6.86455, -0.167847, 0, 0, 0, 0
136816633, 0.0221484, 0.0247119, 0.0150732, 0.017124, 0.107641, 7.56177, -6.86455, -0.106812, -0.0457764, -0.0152588, 0, 0
136816643, 0.020918, 0.0255322, 0.0137402, 0.0137402, 0.105195, 7.54954, -6.87923, -0.0762939, -0.0152588, 0.0457764, 0, 0
136816653, 0.019585, 0.0271729, 0.0137402, 0.0141504, 0.11498, 7.56911, -6.84988, -0.0915527, -0.0305176, -0.0152588, 0, 0
136816663, 0.019585, 0.0255322, 0.0141504, 0.0141504, 0.105195, 7.55443, -6.867, -0.0762939, 0, 0, 0, 0
136816683, 0.0259424, 0.0255322, 0.0141504, 0.0175342, 0.102748, 7.56422, -6.86455, -0.0762939, 0.0152588, 0, 0, 0
136816693, 0.0225586, 0.0263525, 0.0145605, 0.0163037, 0.122319, 7.55199, -6.85966, -0.106812, 0.0915527, -0.0152588, 0, 0
136816703, 0.0247119, 0.0259424, 0.0145605, 0.0141504, 0.117426, 7.56177, -6.87189, -0.0610352, -0.0457764, 0.0305176, 0, 0
136816713, 0.0247119, 0.0233789, 0.0163037, 0.0150732, 0.110087, 7.55688, -6.86211, -0.0762939, -0.0152588, 0.0305176, 0, 0
136816723, 0.0259424, 0.0233789, 0.0137402, 0.0150732, 0.11498, 7.55199, -6.867, -0.12207, 0.0305176, 0, 0, 0
136816733, 0.0221484, 0.0233789, 0.0133301, 0.0141504, 0.105195, 7.56177, -6.86945, -0.0762939, 0.0305176, -0.0152588, 0, 0
136816743, 0.0251221, 0.0237891, 0.0145605, 0.0137402, 0.117426, 7.56422, -6.86211, -0.12207, -0.0915527, 0.0152588, 0, 0
136816763, 0.0233789, 0.0267627, 0.0129199, 0.0150732, 0.110087, 7.56667, -6.84988, -0.106812, 0.0152588, -0.0152588, 0, 0
136816773, 0.0237891, 0.0247119, 0.0145605, 0.0150732, 0.095409, 7.56667, -6.87189, -0.106812, 0, -0.0457764, 0, 0
136816783, 0.0241992, 0.0247119, 0.0125098, 0.0158936, 0.102748, 7.55199, -6.87434, -0.0762939, -0.0152588, -0.0152588, 0, 0
136816793, 0.0241992, 0.0259424, 0.0125098, 0.0141504, 0.11498, 7.56911, -6.87434, -0.0610352, 0.0915527, -0.0610352, 0, 0
136816803, 0.0263525, 0.0251221, 0.0125098, 0.0167139, 0.110087, 7.55933, -6.85232, -0.106812, -0.0457764, 0, 0, 0
136816813, 0.0263525, 0.0247119, 0.0145605, 0.0158936, 0.105195, 7.54954, -6.85232, -0.0915527, 0.0457764, 0.0762939, 0, 0
136816823, 0.0237891, 0.0241992, 0.0129199, 0.0158936, 0.110087, 7.55688, -6.86945, -0.137329, -0.106812, -0.0152588, 0, 0
136816833, 0.0229687, 0.0255322, 0.0137402, 0.0137402, 0.132105, 7.57645, -6.85721, -0.0610352, -0.106812, 0.0152588, 0, 0
136816853, 0.0225586, 0.0251221, 0.0150732, 0.0154834, 0.117426, 7.55443, -6.86945, -0.0915527, 0, -0.0610352, 0, 0
136816863, 0.0241992, 0.0255322, 0.0150732, 0.0145605, 0.110087, 7.56422, -6.85477, -0.12207, -0.0305176, 0, 0, 0
136816873, 0.0241992, 0.0241992, 0.0125098, 0.0145605, 0.11498, 7.5471, -6.85721, -0.0915527, -0.0152588, 0, 0, 0
136816883, 0.0251221, 0.0263525, 0.0150732, 0.0158936, 0.110087, 7.56422, -6.87189, -0.137329, -0.0305176, 0.0152588, 0, 0
136816893, 0.0241992, 0.0263525, 0.0137402, 0.0163037, 0.110087, 7.55688, -6.86945, -0.152588, 0.0152588, -0.0305176, 0, 0
136816903, 0.0229687, 0.0255322, 0.0154834, 0.0145605, 0.105195, 7.56422, -6.88168, -0.106812, -0.0152588, -0.0152588, 0, 0
136816913, 0.0251221, 0.0259424, 0.0154834, 0.0137402, 0.110087, 7.56911, -6.86455, -0.0762939, -0.0152588, 0.0152588, 0, 0
136816923, 0.0251221, 0.0255322, 0.0120996, 0.0137402, 0.117426, 7.55443, -6.85477, -0.0762939, -0.0152588, 0.0305176, 0, 0
136816943, 0.0229687, 0.0251221, 0.0125098, 0.0150732, 0.11498, 7.5471, -6.84254, -0.137329, 0.12207, -0.0610352, 0, 0
136816953, 0.0225586, 0.0251221, 0.0145605, 0.0150732, 0.105195, 7.55443, -6.85232, -0.106812, -0.0610352, 0, 0, 0
136816963, 0.0237891, 0.0229687, 0.0145605, 0.0145605, 0.102748, 7.56177, -6.87434, -0.0305176, -0.0305176, 0.0457764, 0, 0
