timestamp, current1, current2, current3, current4, accel x, accel y, accel z, degrees x, degrees y, degrees z, baro temp, baro pressure
4533, 0.00246094, 0.0397852, 0.260039, -0.113921, 0.0195711, 0.129658, 9.86627, -0.0305176, -0.0305176, 0.0305176, 25.9597, 90838.9
4542, -0.00123047, 0.0397852, 0.260039, -0.109307, 0.0269102, 0.132105, 9.8785, -0.0305176, 0.0457764, 0.0305176, 25.9638, 90839.1
4552, 0.000820312, 0.038042, 0.24835, -0.114741, 0.0244638, 0.122319, 9.86871, -0.0152588, -0.0457764, 0.0305176, 25.9667, 90838.5
4562, 0.000820312, 0.0410156, 0.257988, -0.106333, 0.031803, 0.124766, 9.86627, -0.0762939, 0.0152588, -0.0152588, 25.9669, 90838.2
4572, 0.000820312, 0.0414258, 0.244145, -0.106333, 0.031803, 0.119873, 9.86871, -0.0305176, 0.0610352, 0.0152588, 25.9677, 90838.5
4582, 0.000410156, 0.0448096, 0.26127, -0.112998, 0.0220175, 0.127212, 9.86627, -0.0152588, 0, 0.0152588, 25.9566, 90838.6
4592, 0, 0.0448096, 0.26127, -0.109717, 0.0366958, 0.124766, 9.87361, -0.0610352, -0.0152588, 0.0152588, 25.9569, 90839.1
4602, 0.00123047, 0.0392725, 0.244966, -0.115151, 0.0146783, 0.127212, 9.88095, -0.0152588, 0, 0.0152588, 25.962, 90838.9
4623, 0.000410156, 0.0392725, 0.243325, -0.108384, 0.00978554, 0.132105, 9.89073, 0.0152588, 0, -0.0152588, 25.9612, 90839.3
4632, 0.000410156, 0.0426563, 0.261782, -0.115562, 0.0293566, 0.112534, 9.86382, 0.0610352, 0.0305176, 0.0152588, 25.9595, 90839.1
4642, 0, 0.0426563, 0.261782, -0.106743, 0.031803, 0.122319, 9.8785, -0.0610352, 0.0305176, 0.0457764, 25.961, 90839.1
4652, 0.00287109, 0.0401953, 0.244556, -0.114741, 0.0269102, 0.129658, 9.8785, -0.0305176, 0.0457764, -0.0457764, 25.9665, 90838.8
4662, 0.00164062, 0.0426563, 0.262192, -0.108896, 0.00489277, 0.127212, 9.88584, -0.0610352, -0.0152588, 0.0152588, 25.9648, 90839.1
4672, 0.000820312, 0.0392725, 0.241582, -0.116382, 0.0171247, 0.100302, 9.88584, -0.0610352, 0.0915527, 0.0152588, 25.9625, 90838.5
4682, 0.000820312, 0.0426563, 0.262192, -0.116382, 0.0342494, 0.117426, 9.88339, -0.0762939, 0.0305176, 0.0305176, 25.9582, 90839
4703, 0, 0.0401953, 0.244966, -0.112588, 0.0293566, 0.136998, 9.86871, -0.0457764, 0.0305176, -0.0152588, 25.9652, 90839.2
4712, 0.000820312, 0.0414258, 0.26127, -0.110127, 0.0122319, 0.124766, 9.89318, -0.0610352, 0.0457764, 0.0457764, 25.9635, 90838.9
4722, 0.00328125, 0.0392725, 0.243735, -0.115151, 0.0195711, 0.127212, 9.88584, -0.0152588, -0.0457764, 0.0152588, 25.9712, 90838.3
4732, 0.00328125, 0.0418359, 0.260449, -0.115151, 0.0342494, 0.117426, 9.85893, -0.0610352, 0.0152588, 0.0152588, 25.9597, 90838.4
4742, 0.00205078, 0.0401953, 0.260449, -0.110127, 0.0391421, 0.124766, 9.86382, -0.0762939, 0.0152588, 0.0305176, 25.9765, 90838.8
4752, 0.000820312, 0.0401953, 0.247939, -0.112178, 0.031803, 0.107641, 9.88339, 0.0457764, -0.0915527, 0.0305176, 25.9801, 90839.6
4762, 0.000410156, 0.0418359, 0.258809, -0.110127, 0.0195711, 0.119873, 9.88095, -0.0762939, -0.0152588, -0.0305176, 25.9621, 90839
4772, 0.00246094, 0.0414258, 0.24917, -0.112998, 0.031803, 0.11498, 9.87361, -0.0305176, 0.0152588, 0.0152588, 25.972, 90839
4793, 0.00328125, 0.0401953, 0.250811, -0.112998, 0.0269102, 0.127212, 9.85404, -0.0152588, 0, -0.0305176, 25.9792, 90838.9
4802, 0.00205078, 0.0401953, 0.250811, -0.109717, 0.0293566, 0.134551, 9.88339, -0.0305176, 0.0762939, 0, 25.9789, 90838.7
4812, 0.00164062, 0.0430664, 0.252554, -0.113511, 0.031803, 0.124766, 9.86871, -0.0457764, -0.0152588, -0.0305176, 25.9808, 90838.8
4822, 0.00246094, 0.0401953, 0.252144, -0.108896, 0.0220175, 0.122319, 9.86137, -0.0152588, -0.0305176, 0.0457764, 25.9659, 90838.5
4832, 0, 0.0406055, 0.251733, -0.108896, 0.0489277, 0.122319, 9.88829, -0.0610352, -0.0305176, 0.0457764, 25.9773, 90838.5
4842, 0, 0.0410156, 0.252964, -0.112178, 0.0122319, 0.134551, 9.88339, -0.0610352, 0.0457764, 0.0152588, 25.9814, 90839
4852, 0.000820312, 0.0410156, 0.252964, -0.108896, 0.0171247, 0.127212, 9.87605, 0, 0.0915527, 0.0305176, 25.9833, 90838.8
4873, 0.00287109, 0.0422461, 0.256245, -0.109717, 0.031803, 0.112534, 9.87116, -0.0305176, -0.0610352, 0.0152588, 25.9791, 90838.5
4882, 0.000410156, 0.0392725, 0.24958, -0.115972, 0.0440349, 0.122319, 9.87361, -0.0152588, 0.0305176, -0.0457764, 25.9792, 90838.7
4892, 0.000410156, 0.0426563, 0.257168, -0.115972, 0.0195711, 0.117426, 9.87361, 0, 0.0457764, -0.0610352, 25.9802, 90838.7
4902, -0.00164062, 0.0426563, 0.257168, -0.107563, 0.0293566, 0.132105, 9.8785, -0.0457764, 0.0610352, 0, 25.9767, 90839.4
4912, 0.000410156, 0.0434766, 0.246196, -0.116792, 0.0269102, 0.132105, 9.87361, -0.0610352, 0.106812, 0.0152588, 25.9909, 90838.9
4922, -0.000820312, 0.0422461, 0.259219, -0.106333, 0.0293566, 0.110087, 9.86137, 0.0152588, 0.0305176, -0.0457764, 25.991, 90838.8
4932, 0.00123047, 0.0401953, 0.244966, -0.117612, 0.031803, 0.132105, 9.88339, 0.0305176, -0.0152588, 0, 25.9829, 90839.4
4942, 0.00123047, 0.0422461, 0.26127, -0.117612, 0.0269102, 0.117426, 9.88584, -0.0610352, -0.0610352, 0.0305176, 25.9906, 90839
4963, 0.00246094, 0.0418359, 0.244556, -0.116382, 0.031803, 0.124766, 9.86627, -0.0610352, 0.0610352, 0.0152588, 25.9908, 90839
4972, 0.000410156, 0.0422461, 0.260859, -0.105923, 0.031803, 0.124766, 9.86871, 0.0305176, 0, 0.0152588, 25.9915, 90839.5
4982, 0.00246094, 0.0388623, 0.243325, -0.115562, 0.0293566, 0.124766, 9.87605, -0.0152588, 0.0305176, -0.0305176, 26.0025, 90839.3
4992, -0.000410156, 0.0410156, 0.261782, -0.115562, 0.0342494, 0.124766, 9.89073, 0.0457764, 0.0305176, -0.0152588, 25.9834, 90839.2
5002, -0.000410156, 0.0397852, 0.244556, -0.106743, 0.0391421, 0.119873, 9.88829, 0, 0.0152588, 0.0152588, 25.9812, 90838.9
5012, 0.000820312, 0.0397852, 0.244556, -0.116792, 0.0293566, 0.112534, 9.8785, -0.0305176, 0.0305176, 0.0915527, 25.9764, 90838.5
5022, 0.000410156, 0.0406055, 0.265884, -0.102539, 0.0342494, 0.127212, 9.86871, 0.0305176, -0.0457764, 0, 25.9806, 90838.8
5032, -0.00123047, 0.038042, 0.243325, -0.114741, 0.0293566, 0.136998, 9.86382, 0, -0.0152588, -0.0152588, 26.0013, 90838.7
5053, 0.00123047, 0.038042, 0.247119, -0.109307, 0.0269102, 0.129658, 9.89073, -0.0610352, 0.0305176, 0.0152588, 25.9852, 90838.7
5062, 0.00246094, 0.038042, 0.247119, -0.115151, 0.0146783, 0.122319, 9.8785, 0, -0.0915527, 0.0305176, 25.9929, 90838.9
5072, 0, 0.0442969, 0.260039, -0.107974, 0.0415885, 0.124766, 9.87605, -0.0305176, 0.0610352, 0.0152588, 25.9959, 90839.4
5082, 0.00205078, 0.0388623, 0.242505, -0.111768, 0.0244638, 0.134551, 9.89562, -0.0457764, 0.0457764, -0.0305176, 25.9911, 90838.8
5092, 0, 0.0406055, 0.259629, -0.111357, 0.0171247, 0.132105, 9.88829, -0.0457764, -0.0305176, 0.0152588, 25.9865, 90839.1
5102, 0, 0.0414258, 0.246196, -0.111357, 0.0220175, 0.11498, 9.85404, -0.0305176, 0.0457764, 0, 25.992, 90838.9
5112, 0.00246094, 0.0414258, 0.246196, -0.114331, 0.0440349, 0.112534, 9.88339, -0.0305176, -0.0610352, -0.0152588, 25.9861, 90838.3
5133, -0.000820312, 0.0401953, 0.24917, -0.112178, 0.0146783, 0.139444, 9.86382, -0.0762939, 0.0152588, 0.0152588, 25.9944, 90838.6
5142, -0.00123047, 0.0426563, 0.257578, -0.109717, 0.0293566, 0.124766, 9.87605, -0.0457764, 0.0457764, -0.0152588, 25.9864, 90838.5
5152, -0.00123047, 0.0388623, 0.24917, -0.109717, 0.0366958, 0.132105, 9.87116, -0.0457764, 0.0457764, 0.0152588, 25.9863, 90839.7
5162, 0, 0.0388623, 0.24917, -0.110947, 0.031803, 0.134551, 9.89562, -0.0457764, 0, 0.0305176, 25.9918, 90838.9
5172, 0, 0.0414258, 0.253374, -0.114741, 0.0489277, 0.134551, 9.88339, 0, -0.0305176, 0.0152588, 25.9853, 90838.9
5182, 0.00205078, 0.0414258, 0.251733, -0.110947, 0.0293566, 0.129658, 9.87361, -0.0457764, 0.0152588, 0.0152588, 25.992, 90839.3
5192, 0.000820312, 0.0401953, 0.254194, -0.112178, 0.0293566, 0.134551, 9.8467, -0.0305176, -0.0152588, 0.0610352, 25.9992, 90839.3
5202, 0, 0.0418359, 0.252554, -0.112178, 0.0195711, 0.127212, 9.88095, -0.0152588, 0, 0, 25.9822, 90839.7
5223, -0.00246094, 0.0410156, 0.251221, -0.114741, 0.0342494, 0.11498, 9.86871, -0.0610352, -0.0305176, 0.0610352, 25.9999, 90839.3
5232, 0.00205078, 0.0401953, 0.254194, -0.108896, 0.031803, 0.136998, 9.86137, 0, 0.0305176, -0.0305176, 26.0042, 90839
5242, 0.00123047, 0.0426563, 0.247119, -0.114331, 0.0220175, 0.136998, 9.89073, -0.0457764, -0.0152588, 0.0457764, 25.991, 90839.5
5252, 0.00369141, 0.0406055, 0.256758, -0.114331, 0.0269102, 0.14189, 9.87116, -0.0457764, -0.0762939, 0.0457764, 25.9953, 90839
5262, 0.00369141, 0.0422461, 0.24835, -0.108384, 0.0293566, 0.127212, 9.87116, 0.0152588, 0.0152588, 0, 25.9979, 90838.9
5272, 0.00287109, 0.0422461, 0.24835, -0.115151, 0.0171247, 0.11498, 9.87605, 0.0152588, 0, 0.0152588, 25.9952, 90839
5282, 0.00164062, 0.0410156, 0.258398, -0.107153, 0.0195711, 0.129658, 9.86627, -0.0152588, -0.0762939, 0.0305176, 25.9938, 90840
5303, -0.000410156, 0.0410156, 0.260859, -0.106333, 0.0146783, 0.119873, 9.88829, -0.0305176, 0.0305176, 0.0762939, 26.0023, 90839
5312, -0.000410156, 0.0376318, 0.245376, -0.106333, 0.0342494, 0.117426, 9.86627, 0, 0.0457764, -0.0152588, 26.0089, 90839
5322, 0.00164062, 0.0376318, 0.245376, -0.118945, 0.0244638, 0.129658, 9.87361, -0.0152588, -0.0762939, 0.0457764, 25.9874, 90838.9
5332, 0.00205078, 0.0430664, 0.262192, -0.108896, 0.0195711, 0.11498, 9.89073, -0.0762939, 0, 0.0457764, 25.9854, 90839
5342, 0.000410156, 0.0410156, 0.244966, -0.115562, 0.0440349, 0.119873, 9.90296, -0.0457764, 0.0305176, 0.0457764, 26.0074, 90839.3
5352, 0.000820312, 0.0414258, 0.262603, -0.107563, 0.00244638, 0.134551, 9.88829, -0.0457764, -0.0305176, 0, 26.0014, 90838.5
5362, 0.000820312, 0.0397852, 0.244556, -0.107563, 0.0464813, 0.129658, 9.86627, 0, -0.0457764, 0.0152588, 26.0015, 90838.8
5372, 0.00164062, 0.0397852, 0.244556, -0.114741, 0.0293566, 0.129658, 9.88339, -0.0915527, -0.0915527, 0.0762939, 25.9959, 90838.8
5393, 0.000820312, 0.0422461, 0.244145, -0.116792, 0.0269102, 0.132105, 9.87605, -0.0305176, 0.0152588, 0.0305176, 26.0103, 90838.6
5402, 0.00246094, 0.0438867, 0.262192, -0.106333, 0.0269102, 0.112534, 9.87361, -0.0915527, 0.0610352, 0.0457764, 26.0046, 90838.9
5412, 0.00164062, 0.0426563, 0.243735, -0.106333, 0.0269102, 0.119873, 9.85893, -0.0457764, -0.0152588, 0.0457764, 26.0167, 90838.9
5422, 0.00164062, 0.0410156, 0.259219, -0.114331, 0.0293566, 0.127212, 9.88584, 0, -0.0152588, -0.0305176, 26.0065, 90839
5432, 0.000410156, 0.0410156, 0.259219, -0.107563, 0.0269102, 0.11498, 9.88584, -0.0305176, -0.0762939, 0, 25.9998, 90839.2
5442, 0, 0.0414258, 0.246196, -0.113511, 0.0244638, 0.105195, 9.87605, -0.0305176, 0.0305176, 0.0305176, 26.0165, 90838.9
5452, 0.00123047, 0.0418359, 0.260449, -0.108384, 0.0195711, 0.129658, 9.86871, -0.0305176, 0.137329, 0, 26.0056, 90839.1
5473, 0.000410156, 0.0410156, 0.260859, -0.115562, 0.0342494, 0.129658, 9.87605, -0.0305176, 0.0457764, 0.0305176, 26.0097, 90839.5
5482, 0.00123047, 0.0410156, 0.260859, -0.109717, 0.031803, 0.139444, 9.87361, -0.0457764, 0.0152588, 0.0305176, 26.009, 90839
5492, 0.00123047, 0.0388623, 0.247119, -0.112588, 0.0244638, 0.129658, 9.88095, -0.0610352, -0.0305176, 0.0152588, 26.0007, 90838.9
5502, 0.00123047, 0.0422461, 0.258398, -0.112998, 0.0513741, 0.132105, 9.87361, -0.0305176, -0.0457764, 0, 26.0003, 90839.5
5512, 0.00287109, 0.0401953, 0.2504, -0.114741, 0.0195711, 0.139444, 9.85893, -0.0457764, 0.0457764, -0.0457764, 26.0085, 90839.2
5522, 0.00287109, 0.0410156, 0.253374, -0.114741, 0.0415885, 0.110087, 9.89562, 0.0305176, 0.0915527, -0.0305176, 26.011, 90839.4
5532, -0.000410156, 0.0410156, 0.253374, -0.112178, 0.0440349, 0.105195, 9.89073, -0.0305176, -0.0762939, -0.0610352, 26.0213, 90839.2
5542, 0, 0.0392725, 0.252144, -0.111357, 0.0171247, 0.122319, 9.87116, -0.0305176, 0.0152588, 0, 26.0129, 90839.1
5563, 0.000410156, 0.0418359, 0.254604, -0.111768, 0.0122319, 0.122319, 9.88095, -0.0610352, -0.0457764, -0.0152588, 26.0185, 90839.2
5572, 0.000410156, 0.0406055, 0.253374, -0.111768, 0.0220175, 0.122319, 9.8785, -0.0610352, 0.0762939, 0.0152588, 26.0139, 90838.7
5582, 0.00123047, 0.0406055, 0.253374, -0.114331, 0.0293566, 0.124766, 9.89562, -0.0305176, 0.0152588, 0.0152588, 26.0073, 90839
5592, 0.00123047, 0.0414258, 0.255015, -0.109717, 0.0269102, 0.136998, 9.87361, -0.0457764, -0.0152588, -0.0152588, 26.0093, 90839.1
5602, 0.000410156, 0.0397852, 0.253374, -0.112178, 0.0415885, 0.124766, 9.87605, 0.0152588, 0.0305176, 0.0305176, 26.0103, 90839.2
5612, -0.000820312, 0.0410156, 0.257988, -0.110537, 0.0171247, 0.146783, 9.88339, -0.0152588, 0.0152588, 0.0152588, 26.0145, 90838.4
5622, 0.00205078, 0.0401953, 0.247939, -0.110537, 0.0440349, 0.122319, 9.8785, 0.0305176, -0.106812, 0, 26.007, 90838.8
5643, 0.00287109, 0.0422461, 0.260859, -0.111357, 0.0342494, 0.107641, 9.86382, -0.0915527, 0.0610352, 0.0457764, 26.017, 90839
5652, 0, 0.0426563, 0.246196, -0.117202, 0.0269102, 0.122319, 9.88829, -0.0610352, -0.0915527, 0, 26.0097, 90838.8
5662, 0.00164062, 0.0422461, 0.26127, -0.109717, 0.0244638, 0.129658, 9.86871, 0.0457764, -0.0152588, -0.0457764, 26.0188, 90839
5672, 0.00205078, 0.0392725, 0.245786, -0.109717, 0.0415885, 0.132105, 9.87605, 0.0457764, -0.0457764, 0.0305176, 26.0147, 90838.5
5682, 0.00205078, 0.0414258, 0.263423, -0.115972, 0.0391421, 0.117426, 9.87605, -0.0610352, 0.0610352, 0, 26.0022, 90839.1
5692, 0, 0.0414258, 0.263423, -0.108896, 0.0366958, 0.107641, 9.86382, 0.0152588, 0.0610352, -0.0152588, 26.0222, 90838.6
5702, 0.00328125, 0.0392725, 0.243735, -0.118535, 0.0220175, 0.124766, 9.87361, -0.0305176, 0.0152588, -0.0305176, 26.0124, 90838.8
5712, 0.00123047, 0.0410156, 0.263833, -0.110947, 0.0366958, 0.127212, 9.89318, 0.0152588, 0.0610352, -0.0152588, 26.0177, 90838.3
5733, 0.00164062, 0.0438867, 0.265474, -0.117612, 0.0122319, 0.117426, 9.87605, -0.0152588, 0.0915527, -0.0305176, 26.0281, 90838.5
5742, -0.000410156, 0.0438867, 0.265474, -0.107563, 0.0342494, 0.124766, 9.87116, 0, -0.0305176, 0.0305176, 26.0195, 90838.9
5752, 0.00164062, 0.0376318, 0.245786, -0.116792, 0.0244638, 0.117426, 9.89073, 0.0152588, 0.0152588, 0.0152588, 26.0219, 90839.1
5762, 0, 0.0418359, 0.263423, -0.107153, 0.0513741, 0.122319, 9.86871, -0.0457764, 0.0762939, 0.0305176, 26.0178, 90839.2
5772, 0.00205078, 0.0410156, 0.244556, -0.116382, 0.0122319, 0.110087, 9.88095, -0.0152588, 0, 0.0457764, 26.0297, 90838.9
5782, 0.00205078, 0.0430664, 0.261782, -0.116382, 0.0171247, 0.105195, 9.86382, -0.0762939, 0.0610352, 0.0457764, 26.0348, 90838.7
5792, 0.00164062, 0.0430664, 0.261782, -0.109307, 0.0366958, 0.112534, 9.87605, 0.0457764, -0.0610352, 0.0152588, 26.0265, 90838.8
5813, 0.000820312, 0.0418359, 0.260859, -0.111768, 0.031803, 0.134551, 9.88095, 0.0457764, -0.0457764, 0.0152588, 26.0242, 90838.7
5822, 0.00410156, 0.0392725, 0.24835, -0.115151, 0.0244638, 0.14189, 9.88584, -0.0762939, -0.0762939, 0.0915527, 26.0266, 90838.8
5832, 0.00246094, 0.0426563, 0.258398, -0.115151, 0.0415885, 0.117426, 9.86382, -0.0610352, -0.0610352, -0.0457764, 26.0216, 90839.2
5842, 0.00246094, 0.0426563, 0.24958, -0.112178, 0.0195711, 0.134551, 9.8785, -0.0915527, -0.0457764, 0.0457764, 26.0283, 90839.1
5852, 0.00164062, 0.0392725, 0.24958, -0.114331, 0.0366958, 0.136998, 9.8785, 0, 0.0457764, 0, 26.0287, 90839.1
5862, 0, 0.0418359, 0.260039, -0.110947, 0.0538205, 0.11498, 9.86137, 0.0152588, -0.0457764, 0.0762939, 26.0248, 90839.2
5872, 0.000410156, 0.0410156, 0.24876, -0.112178, 0.0220175, 0.095409, 9.89562, -0.0152588, 0.0610352, 0.0457764, 26.0197, 90838.3
5882, -0.000410156, 0.0410156, 0.258398, -0.112178, 0.0342494, 0.11498, 9.86871, -0.0457764, -0.0305176, 0, 26.0141, 90838.2
5903, 0.00205078, 0.0397852, 0.253374, -0.112998, 0.0464813, 0.122319, 9.87605, 0.0152588, 0.12207, -0.0305176, 26.0287, 90838.7
5912, 0.000410156, 0.0422461, 0.255835, -0.113921, 0.0538205, 0.134551, 9.87361, -0.0457764, 0, 0.0152588, 26.0208, 90839.4
5922, 0, 0.0414258, 0.253374, -0.111357, 0.0342494, 0.144337, 9.88095, 0.0305176, 0.0305176, 0.0457764, 26.0098, 90839.1
5932, 0.000820312, 0.0397852, 0.253784, -0.111768, 0.0513741, 0.127212, 9.86871, -0.0305176, 0.0305176, 0.0152588, 26.0325, 90839.4
5942, 0.000820312, 0.0397852, 0.255425, -0.111768, 0.0171247, 0.132105, 9.89318, 0.0457764, 0.0152588, -0.0457764, 26.038, 90839
5952, -0.00164062, 0.0397852, 0.255425, -0.109717, 0.0269102, 0.149229, 9.87605, -0.0610352, 0.0457764, 0.0457764, 26.0297, 90839
5962, 0.00123047, 0.0392725, 0.24917, -0.114331, 0.0122319, 0.134551, 9.87116, 0.0610352, -0.0152588, 0.0305176, 26.0335, 90839.2
5983, 0.000410156, 0.0401953, 0.250811, -0.115151, 0.0366958, 0.122319, 9.84914, -0.0610352, -0.0915527, 0.0457764, 26.0132, 90839
5992, 0.000820312, 0.0397852, 0.259629, -0.115151, 0.0293566, 0.100302, 9.88339, 0.0152588, 0.0762939, -0.0305176, 26.0353, 90838.9
6002, 0.000820312, 0.0397852, 0.259629, -0.108896, 0.0415885, 0.124766, 9.87605, -0.0305176, -0.106812, 0.0305176, 26.0216, 90839.3
6012, -0.00369141, 0.0392725, 0.247119, -0.116792, 0.0366958, 0.117426, 9.88095, 0.0152588, -0.0305176, 0.0762939, 26.0335, 90839.4
6022, -0.00123047, 0.0434766, 0.260039, -0.107974, 0.0366958, 0.122319, 9.88584, -0.0305176, 0.0152588, -0.0610352, 26.026, 90839
6032, 0.000820312, 0.0410156, 0.247529, -0.115562, 0.0342494, 0.124766, 9.8785, 0.0152588, -0.0457764, -0.0457764, 26.0396, 90839.6
6042, 0.000410156, 0.0414258, 0.262603, -0.115562, 0.0220175, 0.139444, 9.85893, -0.0610352, 0.152588, 0.0152588, 26.0374, 90839.1
6052, 0.000410156, 0.0414258, 0.247119, -0.107563, 0.0220175, 0.129658, 9.87116, -0.0152588, -0.0152588, -0.0457764, 26.0262, 90839.6
6073, 0.00123047, 0.0442969, 0.262192, -0.108896, 0.0293566, 0.132105, 9.85648, 0.0152588, -0.0152588, 0.0915527, 26.0287, 90839.4
6082, 0.000820312, 0.0392725, 0.243735, -0.113921, 0.0391421, 0.122319, 9.88584, 0.0305176, -0.0457764, -0.0457764, 26.0344, 90839.6
6092, 0.00123047, 0.0438867, 0.26127, -0.113921, 0.0342494, 0.095409, 9.88095, -0.0305176, 0.0152588, 0.0152588, 26.0423, 90839
6102, 0.00123047, 0.0426563, 0.244556, -0.105513, 0.0391421, 0.112534, 9.86871, 0.0457764, -0.0457764, 0.0457764, 26.0291, 90839.1
6112, 0, 0.0426563, 0.244556, -0.115151, 0.0146783, 0.122319, 9.88095, 0.0915527, 0.0152588, 0, 26.0348, 90839.5
6122, 0.00246094, 0.0410156, 0.26127, -0.107153, 0.0195711, 0.105195, 9.88829, 0.0152588, 0, 0.0152588, 26.021, 90839.7
6132, 0.000410156, 0.0397852, 0.246196, -0.116382, 0.0293566, 0.119873, 9.87605, -0.0457764, -0.0610352, -0.0152588, 26.0354, 90839.5
6153, 0.000820312, 0.0392725, 0.244966, -0.108384, 0.0342494, 0.134551, 9.87361, -0.0152588, -0.0610352, 0.0305176, 26.0425, 90838.5
6162, 0.00123047, 0.0392725, 0.244966, -0.113921, 0.0244638, 0.134551, 9.88584, -0.0152588, 0.0152588, 0.0457764, 26.0428, 90838.4
6172, 0.00123047, 0.0410156, 0.262192, -0.107974, 0.0440349, 0.122319, 9.88584, -0.0457764, 0.0762939, 0.0457764, 26.0388, 90839.4
6182, 0.00123047, 0.0401953, 0.246709, -0.115972, 0.0122319, 0.122319, 9.87116, 0.0152588, -0.0762939, 0.0762939, 26.0356, 90839.3
6192, 0.00123047, 0.0430664, 0.259219, -0.107563, 0.0195711, 0.127212, 9.87361, 0.0152588, 0.0610352, -0.0152588, 26.0363, 90839.1
6202, 0.00246094, 0.0397852, 0.24917, -0.107563, 0.0244638, 0.117426, 9.87116, -0.0152588, 0.0305176, 0.0610352, 26.0426, 90839
6212, 0.00246094, 0.0397852, 0.24917, -0.115562, 0.0195711, 0.100302, 9.87605, -0.0152588, 0.0915527, -0.0457764, 26.0406, 90839
6222, 0.000820312, 0.0401953, 0.260449, -0.110537, 0.0366958, 0.122319, 9.86627, -0.0610352, 0.0610352, 0.0305176, 26.0368, 90839.6
6243, 0.000410156, 0.0434766, 0.258398, -0.110127, 0.0391421, 0.144337, 9.8785, -0.0915527, 0.0610352, -0.0152588, 26.039, 90838.7
6252, 0.00287109, 0.0410156, 0.250811, -0.110127, 0.0244638, 0.156569, 9.87361, -0.0457764, 0.0152588, 0.0610352, 26.0351, 90839.2
6262, 0.00287109, 0.0410156, 0.255835, -0.112588, 0.031803, 0.144337, 9.86871, -0.0915527, 0.0305176, -0.0457764, 26.034, 90839
6272, 0.000820312, 0.0434766, 0.255835, -0.110947, 0.0269102, 0.132105, 9.87361, -0.106812, 0.0610352, 0.0305176, 26.0364, 90839.4
6282, -0.00328125, 0.0410156, 0.252554, -0.112178, 0.00978554, 0.129658, 9.89073, -0.0152588, 0, 0, 26.0527, 90839.5
6292, 0.00246094, 0.0422461, 0.255015, -0.110947, 0.0391421, 0.129658, 9.86871, -0.0457764, -0.0152588, 0.0152588, 26.0461, 90838.9
6302, 0.000410156, 0.0422461, 0.255425, -0.110947, 0.0244638, 0.122319, 9.86871, 0, -0.0610352, -0.0305176, 26.0475, 90839
6323, 0.00246094, 0.0414258, 0.252554, -0.112588, 0.031803, 0.110087, 9.8785, 0.0152588, -0.0762939, -0.0457764, 26.045, 90838.9
6332, -0.000410156, 0.0392725, 0.257988, -0.108896, 0.0220175, 0.134551, 9.87116, 0.0610352, 0.0305176, -0.0610352, 26.0481, 90838.7
6342, 0.000410156, 0.0410156, 0.24999, -0.115151, 0.0269102, 0.134551, 9.87116, -0.0915527, 0, 0, 26.0392, 90839.2
6352, 0.00123047, 0.0410156, 0.259219, -0.115151, 0.0171247, 0.129658, 9.88339, -0.0152588, 0.0457764, -0.0152588, 26.0438, 90838.9
6362, 0.00123047, 0.038042, 0.247939, -0.107974, 0.0366958, 0.119873, 9.86382, -0.0305176, 0.0305176, 0.0152588, 26.05, 90839.4
6372, 0.000410156, 0.038042, 0.247939, -0.113511, 0.0269102, 0.122319, 9.88339, -0.0457764, -0.0152588, 0.0152588, 26.0412, 90839.2
6382, -0.00123047, 0.0430664, 0.261782, -0.109307, 0.0146783, 0.136998, 9.85648, -0.0610352, 0, 0, 26.0476, 90838.8
6392, 0.00246094, 0.0414258, 0.244966, -0.112998, 0.0195711, 0.132105, 9.86382, 0.0305176, -0.0305176, 0.0305176, 26.0572, 90838.9
6413, -0.000410156, 0.0410156, 0.244556, -0.106743, 0.0366958, 0.119873, 9.85893, -0.0305176, 0.12207, -0.0152588, 26.0433, 90838.7
6422, -0.000410156, 0.0410156, 0.244556, -0.116792, 0.0366958, 0.112534, 9.89562, -0.0610352, -0.0457764, -0.0305176, 26.0405, 90839.2
6432, 0.00123047, 0.0426563, 0.261782, -0.109717, 0.0171247, 0.112534, 9.87361, -0.0457764, 0, -0.0305176, 26.0425, 90839
6442, 0.000410156, 0.0401953, 0.245786, -0.114741, 0.0391421, 0.112534, 9.85893, -0.0457764, -0.106812, -0.0152588, 26.0416, 90839.3
6452, 0.000820312, 0.0434766, 0.262603, -0.108384, 0.0220175, 0.127212, 9.90052, -0.0152588, 0.0152588, 0.0762939, 26.0488, 90838.7
6462, 0.000410156, 0.0414258, 0.244145, -0.108384, 0.0391421, 0.122319, 9.87116, 0, 0.0305176, 0.0457764, 26.0566, 90839.7
6472, 0.000410156, 0.0414258, 0.263423, -0.116382, 0.0269102, 0.127212, 9.87605, -0.0152588, -0.0152588, 0, 26.0485, 90839.4
6482, -0.000820312, 0.0397852, 0.263423, -0.107974, 0.031803, 0.144337, 9.87605, -0.0152588, 0.106812, 0.0305176, 26.0543, 90839.1
6503, 0.00164062, 0.0406055, 0.263013, -0.107974, 0.031803, 0.117426, 9.88829, -0.0457764, 0.0915527, 0, 26.0568, 90839.2
6512, -0.000410156, 0.038042, 0.243325, -0.107974, 0.0293566, 0.127212, 9.88829, 0.0305176, -0.0915527, 0, 26.0348, 90839.2
6522, -0.000410156, 0.038042, 0.262192, -0.114741, 0.0195711, 0.122319, 9.89562, 0.0152588, 0.106812, 0.0152588, 26.0517, 90839
6532, 0.000820312, 0.0422461, 0.262192, -0.108384, 0.0489277, 0.105195, 9.87361, -0.0152588, 0.0152588, 0.0610352, 26.0459, 90839.8
6542, 0.000410156, 0.0392725, 0.244556, -0.115151, 0.0244638, 0.117426, 9.87605, -0.0305176, -0.0457764, 0.0762939, 26.0364, 90839.4
6552, 0.00369141, 0.0401953, 0.260039, -0.106743, 0.0244638, 0.14189, 9.8785, -0.106812, 0, -0.0152588, 26.0517, 90838.8
6562, 0.00123047, 0.0401953, 0.246709, -0.106743, 0.0366958, 0.117426, 9.88095, 0.0305176, -0.12207, 0.0152588, 26.0531, 90839.1
6583, 0.000410156, 0.0434766, 0.257168, -0.110127, 0.0415885, 0.124766, 9.86137, 0.0152588, 0.0457764, 0.0152588, 26.0526, 90839.1
6592, 0.00328125, 0.0392725, 0.24958, -0.111357, 0.0220175, 0.144337, 9.8785, -0.0457764, 0.0762939, 0, 26.0576, 90838.9
6602, 0.00246094, 0.0438867, 0.257168, -0.109717, 0.0342494, 0.122319, 9.86871, -0.0762939, 0.0762939, 0.0152588, 26.0559, 90838.9
6612, 0, 0.0422461, 0.251221, -0.111768, 0.0244638, 0.129658, 9.87116, -0.0152588, 0.0152588, -0.0305176, 26.0573, 90838.7
6622, 0.000410156, 0.0426563, 0.256758, -0.111768, 0.0391421, 0.122319, 9.86871, -0.0610352, 0.0762939, -0.0152588, 26.0575, 90838.8
6632, 0.000410156, 0.0426563, 0.256758, -0.110127, 0.0391421, 0.122319, 9.85648, 0, 0.0762939, 0.0152588, 26.0541, 90839.6
6642, 0, 0.0384521, 0.24999, -0.112588, 0.0195711, 0.122319, 9.87361, -0.0457764, 0.0610352, 0.0762939, 26.0681, 90838.9
6652, 0.00123047, 0.0414258, 0.253784, -0.112998, 0.0366958, 0.0978554, 9.87605, 0.0152588, -0.0457764, 0.0610352, 26.0609, 90839.2
6673, 0.00164062, 0.0406055, 0.252144, -0.110537, 0.0464813, 0.132105, 9.86382, -0.0152588, 0.12207, -0.0152588, 26.0576, 90839.4
6682, 0.00164062, 0.0406055, 0.254194, -0.114741, 0.0171247, 0.129658, 9.89562, -0.0457764, -0.0610352, -0.0152588, 26.0517, 90839.7
6692, 0, 0.0388623, 0.254194, -0.109717, 0.0244638, 0.11498, 9.8785, 0.0152588, -0.0152588, 0, 26.0663, 90839.3
6702, 0.00246094, 0.0414258, 0.250811, -0.112178, 0.0220175, 0.119873, 9.86627, 0.0457764, -0.0305176, -0.0152588, 26.0555, 90839
6712, -0.00123047, 0.038042, 0.259219, -0.111768, 0.0220175, 0.11498, 9.88339, -0.0152588, 0, 0, 26.0524, 90839.3
6722, 0.00164062, 0.0414258, 0.24958, -0.111768, 0.0587132, 0.122319, 9.87361, 0.0152588, 0.0457764, -0.0305176, 26.0476, 90838.9
6732, 0.00164062, 0.0414258, 0.259629, -0.113511, 0.0220175, 0.129658, 9.85893, -0.0762939, 0.0610352, 0.0610352, 26.0418, 90838.8
6753, 0.000410156, 0.0397852, 0.245786, -0.113511, 0.031803, 0.102748, 9.88584, -0.0457764, -0.0762939, -0.0457764, 26.0565, 90839
6762, 0.00164062, 0.0418359, 0.258398, -0.107974, 0.0269102, 0.105195, 9.87361, -0.0152588, 0.0152588, -0.0915527, 26.066, 90839.4
6772, 0.000820312, 0.0397852, 0.244556, -0.107974, 0.0440349, 0.107641, 9.87116, -0.0457764, -0.0305176, 0, 26.0757, 90839
6782, 0.000820312, 0.0397852, 0.260859, -0.113511, 0.0269102, 0.134551, 9.89318, -0.0762939, 0.0152588, 0.0457764, 26.0582, 90838.8
6792, 0.000820312, 0.0397852, 0.260859, -0.106333, 0.031803, 0.124766, 9.88095, 0.0305176, 0.0915527, -0.0152588, 26.0686, 90839.2
6802, 0.00164062, 0.0397852, 0.245376, -0.115972, 0.0269102, 0.129658, 9.90296, 0.0152588, 0, 0.0305176, 26.0592, 90839.1
6812, -0.000410156, 0.0406055, 0.260859, -0.108384, 0.0366958, 0.112534, 9.86627, -0.0457764, 0.0457764, 0.0610352, 26.061, 90839.1
6822, 0, 0.0406055, 0.244145, -0.117202, 0.0293566, 0.136998, 9.88339, -0.0305176, 0.0915527, -0.0610352, 26.0585, 90839.2
6843, 0.000410156, 0.0414258, 0.264243, -0.108896, 0.0366958, 0.122319, 9.86627, -0.0152588, -0.0762939, 0.0610352, 26.0669, 90839.5
6852, 0.00205078, 0.0422461, 0.244145, -0.113921, 0.00733915, 0.122319, 9.88584, -0.0610352, 0.0152588, 0.0152588, 26.0653, 90839.1
6862, 0.00123047, 0.0414258, 0.262192, -0.105923, 0.0269102, 0.117426, 9.88339, -0.0610352, 0.0457764, -0.0457764, 26.0592, 90838.9
6872, 0.00328125, 0.0410156, 0.241582, -0.112998, 0.0293566, 0.11498, 9.87605, -0.0305176, 0.0457764, 0, 26.0626, 90838.8
6882, 0.000820312, 0.0422461, 0.260039, -0.112998, 0.0342494, 0.110087, 9.85648, -0.0152588, -0.0457764, -0.0457764, 26.0693, 90838.8
6892, 0.000820312, 0.0422461, 0.243735, -0.109717, 0.00978554, 0.134551, 9.86871, 0.0305176, 0.0610352, -0.0457764, 26.0552, 90838.8
6902, 0.000410156, 0.0397852, 0.243735, -0.113921, 0.0269102, 0.139444, 9.86871, -0.0915527, -0.0152588, 0.0610352, 26.0692, 90839.3
6923, 0, 0.0392725, 0.245786, -0.116382, 0.0464813, 0.136998, 9.8785, -0.0762939, -0.0457764, 0.0457764, 26.0613, 90838.7
6932, 0, 0.0406055, 0.257578, -0.116382, 0.0146783, 0.129658, 9.88095, 0.0152588, 0.0305176, -0.0152588, 26.0704, 90838.2
6942, 0, 0.0406055, 0.247529, -0.110127, 0.0415885, 0.127212, 9.87361, 0.0305176, -0.0152588, -0.0305176, 26.0666, 90839.2
6952, 0.000820312, 0.0376318, 0.247529, -0.112178, 0.0391421, 0.122319, 9.86382, 0.0152588, 0.0610352, 0.0457764, 26.0639, 90838.8
6962, 0.00287109, 0.0434766, 0.260449, -0.110127, 0.0220175, 0.119873, 9.88584, 0, 0.0305176, 0.0457764, 26.0679, 90839
6972, 0.00123047, 0.0422461, 0.24876, -0.113921, 0.0244638, 0.134551, 9.88584, -0.0152588, -0.0457764, 0, 26.0575, 90839.5
6982, 0.000820312, 0.0397852, 0.258398, -0.113921, 0.0293566, 0.132105, 9.87361, -0.0457764, 0.0305176, -0.0152588, 26.0646, 90839.4
6992, 0.00205078, 0.0397852, 0.253784, -0.113511, 0.0440349, 0.117426, 9.86627, -0.0305176, -0.0305176, -0.0457764, 26.0714, 90838.5
7013, 0.00164062, 0.0414258, 0.253784, -0.110947, 0.0195711, 0.127212, 9.86137, -0.0305176, -0.0762939, 0.0610352, 26.0772, 90838.9
7022, 0.00287109, 0.0406055, 0.252964, -0.110127, 0.0269102, 0.139444, 9.87605, -0.0762939, 0, 0.0610352, 26.0692, 90839.2
7032, -0.000410156, 0.0430664, 0.254194, -0.112178, 0.0244638, 0.129658, 9.88829, 0.0152588, -0.0457764, 0, 26.0612, 90839.1
7042, 0.000820312, 0.0392725, 0.255425, -0.112178, 0.0220175, 0.129658, 9.88339, -0.0762939, 0.0610352, 0.0457764, 26.0607, 90839.7
7052, 0.000410156, 0.0430664, 0.24835, -0.112588, 0.0366958, 0.127212, 9.88829, -0.106812, -0.0610352, 0, 26.0732, 90838.9
7103, -0.000410156, 0.0397852, 0.247529, -0.110127, 0.0293566, 0.110087, 9.87361, 0.0762939, -0.0762939, 0.0762939, 26.0754, 90838.8
7123, -0.000820312, 0.0401953, 0.264653, -0.109717, 0.031803, 0.124766, 9.88339, -0.0915527, 0.0152588, 0.0610352, 26.0786, 90838.8
7132, 0.00164062, 0.0422461, 0.245786, -0.117612, 0.0269102, 0.132105, 9.88095, 0.0152588, 0, 0.0152588, 26.0712, 90838.9
7142, 0.00164062, 0.0410156, 0.26127, -0.117612, 0.0489277, 0.119873, 9.88584, -0.0152588, 0, 0, 26.0695, 90839.2
7152, 0.00164062, 0.0410156, 0.243325, -0.107563, 0.0122319, 0.102748, 9.86137, -0.0610352, -0.0610352, 0.0152588, 26.0802, 90839.3
7162, 0, 0.0410156, 0.243325, -0.116382, 0.0293566, 0.119873, 9.86871, 0, 0.0457764, 0.0457764, 26.0812, 90839.4
7172, 0.00246094, 0.0414258, 0.264653, -0.107563, 0.0342494, 0.112534, 9.90296, 0, -0.0457764, 0.0305176, 26.0732, 90839.3
7182, 0.00164062, 0.0388623, 0.245786, -0.114741, 0.0171247, 0.127212, 9.89073, -0.0152588, 0, -0.0152588, 26.0805, 90839
7192, 0, 0.0406055, 0.265063, -0.114741, 0.0440349, 0.139444, 9.87605, -0.0152588, -0.0152588, 0, 26.0788, 90839.2
7212, 0.00123047, 0.0384521, 0.243325, -0.116382, 0.0342494, 0.134551, 9.86871, 0, -0.0152588, -0.0457764, 26.0834, 90839.2
7222, 0.00369141, 0.0410156, 0.262603, -0.109307, 0.0146783, 0.112534, 9.89562, 0.0152588, 0.0457764, 0.0305176, 26.0658, 90838.7
7232, 0.000820312, 0.0397852, 0.245376, -0.115562, 0.0220175, 0.127212, 9.88339, 0.0152588, -0.0152588, 0.0152588, 26.0817, 90838.9
7242, 0.00164062, 0.0434766, 0.263013, -0.107153, 0.0293566, 0.117426, 9.87116, 0.0152588, 0.0152588, 0, 26.0929, 90839.1
7252, 0.00205078, 0.038042, 0.247119, -0.107153, 0.0122319, 0.127212, 9.86137, -0.0457764, -0.0152588, 0.0610352, 26.088, 90839.1
7262, 0.00205078, 0.038042, 0.247119, -0.115562, 0.0293566, 0.124766, 9.87361, 0.0152588, -0.0152588, -0.0152588, 26.0829, 90839.8
7272, 0.00123047, 0.0426563, 0.262603, -0.110127, 0.0220175, 0.136998, 9.87605, -0.0152588, 0.0152588, 0, 26.0744, 90839.1
7292, -0.000820312, 0.0426563, 0.260859, -0.110127, 0.0293566, 0.117426, 9.88095, 0, 0, -0.0305176, 26.0788, 90839.3
7302, 0.00287109, 0.0384521, 0.251221, -0.110127, 0.0391421, 0.132105, 9.88095, -0.0762939, -0.0457764, 0.0305176, 26.0804, 90839
7312, 0.00287109, 0.0384521, 0.259629, -0.114331, 0.0244638, 0.134551, 9.88584, -0.0457764, 0.0152588, 0.0152588, 26.0799, 90838.9
7322, 0.00451172, 0.0452197, 0.259629, -0.110127, 0.0293566, 0.139444, 9.87361, -0.0152588, 0.106812, -0.0152588, 26.0818, 90839.5
7332, 0, 0.0392725, 0.24958, -0.110947, 0.0244638, 0.139444, 9.85648, 0, -0.0152588, 0.0152588, 26.0932, 90839.1
7342, 0.00123047, 0.0426563, 0.257988, -0.111768, 0.0293566, 0.127212, 9.8785, -0.0915527, 0.0762939, 0.0152588, 26.0857, 90839.2
7352, 0.00123047, 0.038042, 0.252144, -0.111768, 0.0269102, 0.129658, 9.87116, -0.0610352, -0.0152588, -0.0305176, 26.0877, 90839.6
7362, 0.00123047, 0.038042, 0.255425, -0.110537, 0.0391421, 0.11498, 9.87116, 0.0152588, 0.12207, 0.0610352, 26.0729, 90839
7382, 0.00164062, 0.0376318, 0.254604, -0.112998, 0.0146783, 0.119873, 9.85648, 0.0152588, 0.0610352, 0, 26.078, 90839.4
7392, 0.00123047, 0.0410156, 0.251221, -0.112998, 0.0366958, 0.124766, 9.87605, 0.0305176, 0.0610352, 0.0152588, 26.0782, 90839.6
7402, 0.000820312, 0.0401953, 0.255015, -0.112998, 0.0269102, 0.119873, 9.87116, -0.0305176, -0.0457764, 0.0610352, 26.0807, 90839.2
7412, 0.000410156, 0.0401953, 0.251733, -0.110537, 0.0342494, 0.124766, 9.88095, -0.0610352, 0.0610352, -0.0305176, 26.0771, 90839.6
7422, 0.000410156, 0.0438867, 0.251733, -0.113921, 0.0220175, 0.119873, 9.88095, 0.0610352, 0.0610352, 0.0305176, 26.0837, 90838.8
7432, -0.000410156, 0.0414258, 0.258809, -0.110947, 0.0244638, 0.124766, 9.86382, -0.0305176, 0.0610352, 0.0457764, 26.0914, 90839
7442, 0.00123047, 0.0418359, 0.24876, -0.111357, 0.0269102, 0.11498, 9.88829, -0.0305176, 0.0305176, 0.0152588, 26.0768, 90839.8
7462, 0.000820312, 0.0410156, 0.24876, -0.107974, 0.0220175, 0.112534, 9.88339, -0.0610352, 0.0152588, -0.0457764, 26.0906, 90838.8
7472, 0.000820312, 0.0410156, 0.24876, -0.114331, 0.0293566, 0.107641, 9.88339, -0.0152588, 0.0762939, 0.0152588, 26.0829, 90839.6
7482, 0.00123047, 0.0418359, 0.257168, -0.107563, 0.0146783, 0.11498, 9.87605, -0.0610352, -0.0305176, 0, 26.0922, 90839.3
7492, 0, 0.0388623, 0.247529, -0.113511, 0.0171247, 0.117426, 9.87361, -0.0762939, 0.0305176, 0.0457764, 26.0928, 90839.3
7502, 0.000410156, 0.0422461, 0.262603, -0.106743, 0.0293566, 0.122319, 9.87605, 0.0305176, -0.0152588, -0.0152588, 26.0984, 90839.3
7512, 0.00123047, 0.0410156, 0.247529, -0.106743, 0.0220175, 0.117426, 9.88095, -0.0305176, 0.0457764, 0, 26.0899, 90839.9
7522, 0.00123047, 0.0410156, 0.262603, -0.115562, 0.0366958, 0.110087, 9.87116, -0.0152588, 0.0610352, 0.0152588, 26.0997, 90839.1
7532, 0.00205078, 0.0418359, 0.262603, -0.107974, 0.0244638, 0.112534, 9.88584, 0.0305176, 0, -0.0457764, 26.0856, 90839
7552, 0.00246094, 0.0414258, 0.262603, -0.107563, 0.0269102, 0.134551, 9.87116, -0.0457764, 0, 0, 26.0931, 90839.5
7562, 0, 0.0418359, 0.243735, -0.107563, 0.0269102, 0.122319, 9.88829, 0.0457764, -0.0610352, 0.0152588, 26.0971, 90839.4
7572, 0, 0.0418359, 0.261782, -0.116792, 0.031803, 0.107641, 9.88095, -0.0915527, 0, -0.0152588, 26.0934, 90839.1
7582, 0.00164062, 0.0422461, 0.261782, -0.107153, 0.0171247, 0.11498, 9.8785, -0.0305176, -0.0305176, -0.0152588, 26.0971, 90839.2
7592, 0.00205078, 0.0397852, 0.244966, -0.116792, 0.0220175, 0.122319, 9.89318, 0, -0.0457764, -0.0152588, 26.0962, 90838.9
7602, 0.000410156, 0.0434766, 0.262603, -0.107563, 0.0366958, 0.110087, 9.88339, -0.0610352, 0, 0.0610352, 26.0981, 90839.4
7612, 0.000410156, 0.0388623, 0.245786, -0.107563, 0.0342494, 0.14189, 9.87605, -0.0762939, 0.0152588, -0.0152588, 26.0974, 90840
7622, 0.00123047, 0.0388623, 0.261782, -0.116792, 0.0171247, 0.095409, 9.85648, -0.0762939, -0.0152588, 0.0152588, 26.0943, 90839.2
7642, 0.00246094, 0.0392725, 0.244966, -0.114331, 0.0269102, 0.144337, 9.88829, -0.0457764, 0.0610352, -0.0152588, 26.0959, 90839.2
7652, 0.000820312, 0.0422461, 0.262192, -0.107153, 0.0391421, 0.124766, 9.88829, -0.0305176, -0.0305176, 0, 26.0862, 90838.9
7662, 0, 0.0401953, 0.247529, -0.114331, 0.0342494, 0.119873, 9.89318, 0.0305176, -0.12207, 0.0152588, 26.0994, 90839.5
7672, 0.00123047, 0.0422461, 0.259629, -0.114331, 0.0195711, 0.122319, 9.87116, -0.0305176, 0.0762939, 0.0457764, 26.1023, 90839.2
7682, 0.00123047, 0.0422461, 0.259629, -0.107974, 0.0220175, 0.119873, 9.88095, -0.0762939, 0, 0, 26.0898, 90839.4
7692, 0.00164062, 0.0414258, 0.247119, -0.112998, 0.031803, 0.105195, 9.88095, -0.0457764, 0.0457764, 0.0457764, 26.095, 90839.2
7702, -0.000820312, 0.0434766, 0.257578, -0.109307, 0.0244638, 0.119873, 9.8785, -0.0762939, 0.0457764, 0.0305176, 26.0972, 90839.7
7722, -0.000820312, 0.0448096, 0.255835, -0.112998, 0.0342494, 0.11498, 9.88339, -0.0152588, 0.0152588, 0.0305176, 26.0971, 90838.9
7732, -0.000820312, 0.0448096, 0.252144, -0.110127, 0.0391421, 0.122319, 9.87361, -0.0305176, 0.0457764, 0.0457764, 26.1096, 90839
7742, -0.00164062, 0.0401953, 0.252144, -0.110537, 0.0391421, 0.119873, 9.88095, 0.0305176, 0.0152588, 0, 26.1041, 90839.2
7752, 0.00123047, 0.0418359, 0.253784, -0.112178, 0.0220175, 0.117426, 9.86382, -0.0152588, 0, -0.0457764, 26.0993, 90839.1
7762, 0.00246094, 0.0372217, 0.255015, -0.110127, 0.031803, 0.127212, 9.87605, -0.0610352, -0.0610352, 0.0152588, 26.1048, 90839.2
7772, 0, 0.0442969, 0.254194, -0.110127, 0.0146783, 0.119873, 9.88095, -0.0457764, 0.0152588, 0.0152588, 26.0962, 90839.6
7782, 0.00123047, 0.0442969, 0.257988, -0.112998, 0.0415885, 0.11498, 9.88095, 0, -0.0610352, 0.0152588, 26.0979, 90839.2
7792, 0.00123047, 0.0410156, 0.257988, -0.110127, 0.0489277, 0.119873, 9.87605, 0.0610352, 0.0457764, 0.0610352, 26.0847, 90838.9
7812, 0.00164062, 0.0392725, 0.258398, -0.109717, 0.031803, 0.112534, 9.89562, -0.0457764, -0.0457764, 0.0152588, 26.0991, 90838.9
7822, 0.00123047, 0.0401953, 0.246709, -0.109717, 0.00978554, 0.124766, 9.85648, -0.12207, 0.0305176, -0.0152588, 26.1036, 90839.6
7832, 0.00123047, 0.0401953, 0.260039, -0.113511, 0.031803, 0.127212, 9.8785, -0.0762939, -0.0610352, 0, 26.1021, 90839.3
7842, 0.00123047, 0.0418359, 0.260039, -0.109717, 0.0293566, 0.129658, 9.87361, 0, 0.0305176, 0.0457764, 26.106, 90839.1
7852, 0.00123047, 0.0406055, 0.247939, -0.113921, 0.0146783, 0.112534, 9.86871, -0.0610352, -0.0305176, 0.0457764, 26.0995, 90839.2
7862, 0.000820312, 0.0426563, 0.264243, -0.108384, 0.0489277, 0.122319, 9.8785, -0.0457764, -0.106812, -0.0152588, 26.1115, 90839.6
7872, 0.000820312, 0.0401953, 0.245786, -0.108384, 0.0244638, 0.107641, 9.86627, -0.0610352, 0.0610352, 0, 26.1081, 90839.2
7892, 0.00287109, 0.0372217, 0.264243, -0.106743, 0.0122319, 0.117426, 9.8785, 0.0152588, 0.0610352, -0.0305176, 26.1082, 90839.3
7902, 0.00123047, 0.0430664, 0.244145, -0.114331, 0.0244638, 0.124766, 9.87605, -0.0152588, -0.0457764, 0.0610352, 26.1062, 90838.8
7912, 0.00123047, 0.0410156, 0.265474, -0.109307, 0.0293566, 0.139444, 9.86627, 0.0457764, -0.0152588, -0.0305176, 26.1022, 90839
7922, 0.000820312, 0.0406055, 0.245376, -0.117202, 0.0244638, 0.110087, 9.87361, -0.0152588, -0.0152588, 0.0457764, 26.1018, 90839.3
7932, 0.00164062, 0.0401953, 0.263423, -0.117202, 0.0415885, 0.117426, 9.86627, -0.106812, -0.0152588, 0, 26.0977, 90839.4
7942, 0.00164062, 0.0401953, 0.263423, -0.107974, 0.0220175, 0.124766, 9.86627, -0.106812, -0.0152588, 0.0152588, 26.107, 90838.8
7952, -0.000410156, 0.0384521, 0.245786, -0.115151, 0.0293566, 0.124766, 9.89073, -0.0305176, -0.0152588, -0.0305176, 26.1001, 90839.1
7962, -0.00164062, 0.0406055, 0.263833, -0.108384, 0.0489277, 0.122319, 9.87605, -0.0305176, -0.0152588, -0.0457764, 26.0992, 90839.6
7982, 0.00246094, 0.0418359, 0.260859, -0.114331, 0.0293566, 0.119873, 9.88095, -0.0610352, 0.0762939, 0.0152588, 26.1062, 90838.5
7992, 0.000820312, 0.0418359, 0.247939, -0.108384, 0.0244638, 0.119873, 9.86382, -0.0457764, -0.0152588, 0.0305176, 26.1047, 90839.4
8002, 0.000820312, 0.0401953, 0.247939, -0.114741, 0.0391421, 0.112534, 9.85648, 0.0610352, -0.0152588, -0.0152588, 26.1026, 90839.9
8012, 0.000820312, 0.0442969, 0.261782, -0.107974, 0.0220175, 0.124766, 9.89073, -0.152588, -0.0305176, 0.0152588, 26.1077, 90839.3
8022, -0.000410156, 0.0397852, 0.246196, -0.112588, 0.0293566, 0.11498, 9.88829, -0.0152588, -0.0610352, 0.0457764, 26.1071, 90839.4
8032, 0.00328125, 0.0422461, 0.260449, -0.112588, 0.0342494, 0.124766, 9.88584, 0.0305176, 0, 0, 26.1066, 90839.4
8042, 0.00246094, 0.0422461, 0.24958, -0.109717, 0.0293566, 0.139444, 9.89073, -0.0610352, 0.0762939, -0.0152588, 26.1055, 90839.2
8062, 0.000820312, 0.0414258, 0.257988, -0.108384, 0.0415885, 0.119873, 9.86627, 0.0305176, 0.0457764, 0, 26.114, 90839.4
8072, -0.000410156, 0.0384521, 0.251221, -0.112998, 0.0415885, 0.11498, 9.88095, 0.0305176, 0.0305176, -0.0305176, 26.1056, 90839.4
8082, 0.00123047, 0.0406055, 0.256245, -0.112998, 0.0293566, 0.129658, 9.87605, -0.0152588, -0.106812, 0, 26.1047, 90839.2
8092, 0.000410156, 0.0406055, 0.250811, -0.111768, 0.0244638, 0.134551, 9.86382, 0.0305176, 0.0457764, -0.0152588, 26.1018, 90839.5
8102, 0.000410156, 0.0401953, 0.250811, -0.112178, 0.031803, 0.107641, 9.87605, 0.0152588, 0.0457764, 0.0152588, 26.104, 90839.2
8112, -0.000410156, 0.0410156, 0.252554, -0.111357, 0.0342494, 0.11498, 9.88339, -0.0152588, 0.0457764, 0.0152588, 26.1186, 90839.5
8122, 0.00205078, 0.0388623, 0.254604, -0.112588, 0.0464813, 0.119873, 9.88584, 0, -0.0457764, 0.0305176, 26.1147, 90839
8132, 0.00123047, 0.0418359, 0.252144, -0.110947, 0.0391421, 0.129658, 9.87116, -0.0457764, -0.0305176, 0.0457764, 26.1134, 90838.5
8152, 0.000410156, 0.0392725, 0.257168, -0.111768, 0.0269102, 0.117426, 9.88095, -0.0152588, 0.0305176, 0, 26.1105, 90838.7
8162, 0.00164062, 0.0422461, 0.250811, -0.110537, 0.031803, 0.117426, 9.87605, -0.0457764, 0.0915527, 0.0305176, 26.1207, 90839.5
8172, 0.000820312, 0.0376318, 0.256245, -0.108896, 0.0220175, 0.127212, 9.85648, -0.0305176, 0.0152588, -0.0305176, 26.1142, 90839.2
8182, 0.000410156, 0.0406055, 0.251221, -0.114331, 0.0195711, 0.117426, 9.89318, -0.0915527, 0, -0.0152588, 26.1153, 90839.4
8192, 0.00205078, 0.0422461, 0.260449, -0.114331, 0.0171247, 0.11498, 9.8785, -0.0305176, 0.0457764, 0.0457764, 26.1052, 90838.9
8202, 0.000410156, 0.0422461, 0.247939, -0.107974, 0.0440349, 0.117426, 9.88339, 0, -0.0152588, 0.0610352, 26.113, 90838.5
8212, 0.000410156, 0.0401953, 0.247939, -0.112588, 0.0293566, 0.112534, 9.87361, -0.0457764, 0, -0.0152588, 26.1095, 90839.3
8232, 0.00328125, 0.0410156, 0.243735, -0.112998, 0.0342494, 0.129658, 9.88095, 0, 0.0610352, 0.0305176, 26.1081, 90838.9
8242, -0.000820312, 0.0430664, 0.265474, -0.112998, 0.0171247, 0.127212, 9.87116, -0.0915527, 0.0152588, 0.0305176, 26.1177, 90839.1
8252, 0.000410156, 0.0430664, 0.246196, -0.108896, 0.0146783, 0.124766, 9.89318, 0.0610352, 0.0305176, 0.0457764, 26.1125, 90839.2
8262, 0.000410156, 0.0426563, 0.246196, -0.114741, 0.0269102, 0.112534, 9.85404, -0.0610352, 0.0610352, 0.0305176, 26.1104, 90839.6
8272, -0.000410156, 0.0422461, 0.264653, -0.107153, 0.0293566, 0.132105, 9.88584, -0.0610352, -0.0152588, 0.0152588, 26.1215, 90838.8
8282, 0.00164062, 0.0434766, 0.244145, -0.116792, 0.0366958, 0.129658, 9.86382, 0.0610352, -0.0457764, 0.0152588, 26.1094, 90839
8292, 0.00205078, 0.0418359, 0.263833, -0.116792, 0.0269102, 0.129658, 9.88095, -0.0152588, 0.0305176, -0.0305176, 26.1152, 90839.2
8302, 0.000820312, 0.0418359, 0.243325, -0.107153, 0.0220175, 0.139444, 9.88095, -0.0457764, -0.0152588, 0.0610352, 26.1109, 90839.1
8322, 0.000820312, 0.0430664, 0.262192, -0.107563, 0.0293566, 0.129658, 9.89073, -0.0610352, 0, 0, 26.1186, 90839.8
8332, 0.00205078, 0.0401953, 0.245376, -0.116792, 0.0195711, 0.124766, 9.89807, 0.0457764, 0.0305176, 0.0305176, 26.1211, 90839.3
8342, 0.00123047, 0.0414258, 0.263423, -0.107563, 0.0440349, 0.124766, 9.87116, -0.0152588, -0.0305176, 0.0152588, 26.102, 90839.1
8352, -0.00123047, 0.0418359, 0.247529, -0.107563, 0.0146783, 0.119873, 9.87116, 0.0305176, 0.0305176, -0.0610352, 26.1157, 90839
8362, -0.00123047, 0.0418359, 0.247529, -0.114331, 0.0269102, 0.105195, 9.88339, 0.0152588, -0.0457764, 0.0762939, 26.1165, 90840.1
8372, 0, 0.0426563, 0.262603, -0.109717, 0.0293566, 0.134551, 9.85159, -0.0152588, -0.0610352, 0.0305176, 26.1132, 90839.1
8382, -0.00123047, 0.0430664, 0.24835, -0.115972, 0.0293566, 0.119873, 9.87361, -0.0305176, 0.152588, 0.0152588, 26.1265, 90839.6
8402, 0.000410156, 0.0418359, 0.251221, -0.107974, 0.0366958, 0.110087, 9.88339, -0.0152588, 0, -0.0152588, 26.1237, 90839.2
8412, 0.00205078, 0.0418359, 0.257988, -0.114741, 0.0366958, 0.124766, 9.87605, -0.0305176, 0.0152588, -0.0305176, 26.1212, 90839.5
8422, 0.00205078, 0.0418359, 0.257988, -0.111357, 0.0171247, 0.129658, 9.90296, 0, 0, 0, 26.1272, 90839.5
8432, 0.00287109, 0.0406055, 0.250811, -0.112588, 0.031803, 0.117426, 9.87116, -0.0305176, 0.0610352, -0.0305176, 26.1142, 90839.2
8442, -0.000820312, 0.0434766, 0.257988, -0.111768, 0.0220175, 0.107641, 9.85893, 0.0305176, -0.0152588, 0, 26.127, 90839.1
8452, 0.00123047, 0.0384521, 0.251733, -0.111768, 0.0244638, 0.107641, 9.87361, 0, -0.0152588, 0, 26.1207, 90838.9
8462, -0.00123047, 0.0384521, 0.256245, -0.112588, 0.0366958, 0.127212, 9.89073, -0.0305176, 0.0762939, -0.0305176, 26.128, 90839
8472, -0.00123047, 0.0452197, 0.256245, -0.110947, 0.0293566, 0.117426, 9.88339, 0.0457764, 0.0762939, -0.0305176, 26.1153, 90839
8492, 0, 0.0438867, 0.252964, -0.111768, 0.0244638, 0.127212, 9.88829, -0.0457764, -0.0610352, -0.0762939, 26.132, 90839.6
8502, 0.00164062, 0.0376318, 0.257988, -0.111768, 0.0269102, 0.129658, 9.87116, -0.0305176, 0, -0.0152588, 26.1194, 90839.7
8512, 0.00164062, 0.0376318, 0.253374, -0.112178, 0.0342494, 0.144337, 9.86137, -0.106812, 0.0305176, 0.0762939, 26.1238, 90839.2
8522, 0.00164062, 0.0406055, 0.253374, -0.111768, 0.0220175, 0.132105, 9.89562, -0.0305176, 0.0305176, 0, 26.1214, 90839.2
8532, 0.000820312, 0.0418359, 0.259219, -0.111768, 0.0342494, 0.136998, 9.87605, 0.0305176, -0.0762939, -0.0457764, 26.1299, 90839.3
8542, 0.000820312, 0.0410156, 0.24958, -0.110537, 0.0146783, 0.127212, 9.85893, -0.0305176, 0, 0, 26.1312, 90839.5
8552, -0.00205078, 0.0406055, 0.26127, -0.110127, 0.0171247, 0.124766, 9.88829, -0.0457764, 0.0915527, -0.0610352, 26.1129, 90838.5
8572, 0.00205078, 0.0426563, 0.24958, -0.114741, 0.0171247, 0.11498, 9.86137, 0.0152588, 0.0152588, 0.0457764, 26.1323, 90839.6
8582, 0.00205078, 0.0422461, 0.260449, -0.108384, 0.0269102, 0.132105, 9.86871, -0.0915527, -0.0457764, 0, 26.1301, 90839.2
8592, -0.000410156, 0.0430664, 0.24835, -0.114741, 0.0269102, 0.134551, 9.89562, 0.0305176, -0.0152588, -0.0152588, 26.1311, 90839.7
8602, 0.000410156, 0.0410156, 0.263833, -0.110947, 0.0269102, 0.124766, 9.86382, 0.0915527, 0.0457764, 0.0457764, 26.1286, 90838.9
8612, -0.000410156, 0.0410156, 0.246196, -0.110947, 0.0171247, 0.132105, 9.8785, -0.0152588, 0.0610352, 0, 26.1278, 90839.3
8622, 0.000410156, 0.0410156, 0.263423, -0.112588, 0.0293566, 0.122319, 9.87361, -0.0305176, -0.0152588, 0.0305176, 26.121, 90839
8632, 0.000410156, 0.0392725, 0.263423, -0.106743, 0.0391421, 0.127212, 9.87116, 0.0305176, -0.0457764, -0.0610352, 26.123, 90840.1
8642, 0, 0.0422461, 0.245376, -0.114331, 0.0293566, 0.149229, 9.90052, 0, 0.0152588, 0.0457764, 26.114, 90839.3
8662, 0.000820312, 0.0418359, 0.245786, -0.108384, 0.0195711, 0.122319, 9.86627, -0.0152588, 0.0152588, 0.0152588, 26.1197, 90839.1
8672, 0.00123047, 0.0418359, 0.262603, -0.115972, 0.0269102, 0.11498, 9.88095, -0.0305176, 0.0762939, 0.0305176, 26.1328, 90838.8
8682, 0.00123047, 0.0434766, 0.262603, -0.107153, 0.0342494, 0.117426, 9.85648, -0.106812, -0.0152588, 0.0457764, 26.129, 90839.4
8692, 0.000820312, 0.0406055, 0.246196, -0.113921, 0.0293566, 0.127212, 9.87361, 0.0152588, 0.137329, 0.0457764, 26.1212, 90838.8
8702, 0.00123047, 0.0430664, 0.263013, -0.106333, 0.0391421, 0.117426, 9.86871, 0.0457764, 0.0305176, -0.0305176, 26.1331, 90838.6
8712, 0.00123047, 0.0410156, 0.246196, -0.106333, 0.0220175, 0.134551, 9.88339, -0.0152588, -0.12207, 0.0610352, 26.1205, 90838.9
8722, 0.000820312, 0.0410156, 0.262603, -0.115151, 0.0440349, 0.134551, 9.85893, -0.0915527, 0.0762939, 0.0915527, 26.1219, 90838.6
8742, 0.00164062, 0.0418359, 0.24917, -0.114331, 0.0220175, 0.132105, 9.88339, -0.0305176, 0.0915527, 0, 26.1228, 90839.3
8752, -0.00164062, 0.0397852, 0.260449, -0.107974, 0.0293566, 0.119873, 9.86871, -0.0305176, -0.0305176, -0.0305176, 26.1171, 90839.5
8762, 0.000410156, 0.0397852, 0.247529, -0.115972, 0.0195711, 0.129658, 9.88829, -0.0305176, -0.0152588, 0.0305176, 26.1418, 90839
8772, 0.000820312, 0.0397852, 0.258398, -0.115972, 0.0146783, 0.132105, 9.86382, -0.0457764, 0.0762939, 0.0152588, 26.1396, 90839.6
8782, 0.00205078, 0.0418359, 0.258398, -0.109717, 0.0244638, 0.112534, 9.88095, -0.0762939, 0.0915527, 0.0457764, 26.1219, 90839.4
8792, 0.00205078, 0.0392725, 0.251733, -0.114741, 0.0366958, 0.119873, 9.87116, -0.0915527, 0.0152588, -0.0457764, 26.1312, 90839.4
8802, 0.00328125, 0.0410156, 0.258809, -0.110127, 0.0391421, 0.11498, 9.89318, -0.0152588, -0.0915527, 0.0762939, 26.1405, 90838.7
8812, 0, 0.0401953, 0.251733, -0.115562, 0.031803, 0.11498, 9.88339, -0.0305176, 0.0610352, 0.0457764, 26.1437, 90838.9
8832, 0.000820312, 0.0434766, 0.255425, -0.111768, 0.0220175, 0.124766, 9.87361, 0.0610352, 0.0762939, 0.0152588, 26.1228, 90839.1
8842, 0.000820312, 0.0401953, 0.255425, -0.113511, 0.0342494, 0.127212, 9.88584, 0.0152588, -0.0152588, -0.0152588, 26.1319, 90838.9
8852, 0, 0.0397852, 0.255425, -0.112998, 0.0366958, 0.127212, 9.85404, 0.0457764, 0.0152588, -0.0305176, 26.1242, 90838.8
8862, 0.000820312, 0.0414258, 0.257988, -0.110537, 0.0269102, 0.122319, 9.88584, -0.0457764, 0.0152588, 0.0305176, 26.1331, 90839.2
8872, 0.00164062, 0.0422461, 0.253374, -0.110537, 0.0489277, 0.124766, 9.88584, 0.0152588, -0.0762939, 0, 26.1332, 90839
8882, 0.00246094, 0.0422461, 0.260859, -0.112178, 0.0244638, 0.122319, 9.88095, 0.0457764, 0.0915527, 0.0610352, 26.1301, 90839.4
8892, 0.00246094, 0.038042, 0.260859, -0.110537, 0.031803, 0.105195, 9.86382, 0.0610352, 0, 0, 26.1226, 90839.2
8912, 0.00369141, 0.0414258, 0.260449, -0.110947, 0.0195711, 0.124766, 9.85159, -0.0457764, 0, 0.0610352, 26.123, 90839.3
8922, 0.00123047, 0.0414258, 0.2504, -0.110947, 0.031803, 0.117426, 9.86871, 0, 0.0457764, 0, 26.1281, 90839.3
8932, -0.00123047, 0.0414258, 0.262603, -0.112998, 0.0269102, 0.119873, 9.89073, -0.0305176, -0.0305176, 0, 26.1301, 90838.6
8942, -0.00123047, 0.0401953, 0.262603, -0.109307, 0.0171247, 0.127212, 9.86382, 0.0152588, 0, 0.0305176, 26.1356, 90839.3
8952, 0.00328125, 0.0442969, 0.245786, -0.114741, 0.0220175, 0.127212, 9.87361, -0.0915527, 0.0305176, 0.0305176, 26.1258, 90839.7
8962, -0.000410156, 0.0406055, 0.263833, -0.107153, 0.031803, 0.132105, 9.85893, -0.0152588, 0.0305176, 0, 26.1344, 90839.5
8972, -0.000820312, 0.0414258, 0.243735, -0.115151, 0.0269102, 0.117426, 9.85404, 0.0305176, -0.0305176, -0.0305176, 26.1322, 90839.2
8982, -0.000820312, 0.0414258, 0.262603, -0.115151, 0.0489277, 0.129658, 9.86382, -0.0152588, 0.137329, -0.0305176, 26.1386, 90839.2
9002, 0.000410156, 0.0397852, 0.246709, -0.114741, 0.0220175, 0.134551, 9.86871, -0.0305176, 0.0152588, 0.0457764, 26.1432, 90839.5
9012, 0.000820312, 0.0401953, 0.263833, -0.104282, 0.0342494, 0.107641, 9.88339, 0, 0.0610352, 0.0152588, 26.1382, 90839.4
9022, 0.000820312, 0.0401953, 0.243735, -0.116792, 0.0146783, 0.124766, 9.88339, -0.0457764, -0.0152588, -0.0762939, 26.1374, 90838.6
9032, -0.000820312, 0.0401953, 0.262192, -0.116792, 0.0391421, 0.122319, 9.86627, -0.0152588, 0.0152588, 0.0152588, 26.1259, 90839.2
9042, 0.00287109, 0.0401953, 0.244556, -0.106743, 0.031803, 0.124766, 9.88339, 0, -0.0152588, -0.0457764, 26.1389, 90839
9052, 0.00287109, 0.0392725, 0.244556, -0.115972, 0.031803, 0.124766, 9.88829, 0, 0.0457764, 0.0915527, 26.1363, 90839.1
9062, 0, 0.0410156, 0.263013, -0.107153, 0.0342494, 0.136998, 9.86137, -0.0305176, 0.0152588, 0.0305176, 26.1322, 90839.4
9072, 0, 0.0397852, 0.246709, -0.118535, 0.0171247, 0.124766, 9.86137, 0, 0.0762939, 0, 26.13, 90839.1
9092, 0.00164062, 0.0426563, 0.24876, -0.109307, 0.0171247, 0.134551, 9.88095, -0.0610352, 0, 0, 26.1348, 90839.7
9102, 0.00164062, 0.0401953, 0.24876, -0.114331, 0.0171247, 0.11498, 9.86627, 0.0305176, 0.0305176, -0.0305176, 26.1417, 90839.3
9112, -0.000820312, 0.0401953, 0.264243, -0.112178, 0.031803, 0.124766, 9.88584, 0, -0.0610352, 0.0915527, 26.1428, 90839.5
9122, -0.000410156, 0.0392725, 0.247939, -0.113511, 0.031803, 0.124766, 9.8785, -0.0762939, 0.0152588, 0, 26.1362, 90839.1
9132, 0.00287109, 0.0434766, 0.262192, -0.113511, 0.0220175, 0.129658, 9.87605, -0.0915527, 0.0152588, 0, 26.141, 90839
9142, 0.00164062, 0.0434766, 0.252144, -0.110537, 0.0391421, 0.129658, 9.88339, -0.0305176, -0.0457764, 0, 26.1392, 90839
9152, 0.00164062, 0.0410156, 0.252144, -0.113921, 0.0244638, 0.146783, 9.88829, 0.0762939, 0.0457764, 0, 26.1352, 90838.5
9172, 0.00205078, 0.0414258, 0.251221, -0.112998, 0.0220175, 0.122319, 9.8785, 0, 0.0305176, 0, 26.1355, 90839.3
9182, 0.00123047, 0.0426563, 0.257988, -0.111357, 0.0269102, 0.11498, 9.88829, 0.0305176, 0, -0.0152588, 26.135, 90839.4
9192, 0.000410156, 0.0426563, 0.252144, -0.111357, 0.0171247, 0.112534, 9.86627, 0.0457764, 0.0152588, 0, 26.1297, 90839.4
9202, 0.00369141, 0.0410156, 0.252144, -0.113511, 0.0269102, 0.122319, 9.87605, -0.0305176, 0.0610352, 0, 26.1383, 90839.2
9212, 0.00369141, 0.0430664, 0.254194, -0.110947, 0.0195711, 0.112534, 9.87605, -0.0305176, 0, 0, 26.141, 90838.8
9222, 0.00123047, 0.0418359, 0.255425, -0.113511, 0.0244638, 0.122319, 9.89073, -0.0305176, 0, 0, 26.1448, 90839.5
9232, 0.000410156, 0.0410156, 0.252964, -0.114331, 0.0366958, 0.117426, 9.87116, -0.0762939, 0.0305176, -0.0152588, 26.1399, 90839.4
9242, -0.00205078, 0.0397852, 0.258398, -0.114331, 0, 0.124766, 9.86871, -0.0610352, 0.0457764, -0.0457764, 26.1366, 90839
9262, 0.000820312, 0.0426563, 0.251733, -0.111357, 0.0244638, 0.144337, 9.8785, 0, 0.12207, 0.0457764, 26.141, 90839.7
9272, -0.000820312, 0.038042, 0.260039, -0.111768, 0.0293566, 0.11498, 9.88095, 0.0305176, 0.0457764, 0, 26.1573, 90839.3
9282, 0.000410156, 0.0434766, 0.2504, -0.114331, 0.0171247, 0.124766, 9.88095, 0, -0.0152588, -0.0152588, 26.1513, 90839.3
9292, 0.000820312, 0.0401953, 0.260859, -0.114331, 0.0269102, 0.127212, 9.8785, 0.0610352, 0.0610352, -0.0152588, 26.1428, 90839.4
9302, 0.000410156, 0.0401953, 0.2504, -0.109717, 0.0415885, 0.127212, 9.86382, 0, 0.0610352, 0, 26.1353, 90839.2
9312, 0.000410156, 0.0422461, 0.2504, -0.113511, 0.0293566, 0.132105, 9.88829, 0.0152588, -0.0610352, 0, 26.1385, 90839.1
9322, 0.000410156, 0.0406055, 0.263833, -0.108384, 0.0220175, 0.129658, 9.87605, 0.0305176, -0.0610352, -0.0305176, 26.1425, 90839.2
9342, 0, 0.0422461, 0.263013, -0.114331, 0.0269102, 0.119873, 9.86382, 0.0305176, 0, 0.0152588, 26.1344, 90838.8
9352, 0.00287109, 0.0422461, 0.244145, -0.108896, 0.0415885, 0.122319, 9.87116, -0.0762939, -0.0152588, 0.0305176, 26.1514, 90838.7
9362, 0.00287109, 0.0418359, 0.244145, -0.114741, 0.0195711, 0.122319, 9.88339, 0.0610352, 0.0152588, 0.0457764, 26.1416, 90839.1
9372, 0.00287109, 0.0426563, 0.264243, -0.110127, 0.0220175, 0.107641, 9.87605, 0.0152588, 0, 0.0152588, 26.1511, 90839
9382, 0.00246094, 0.0434766, 0.244556, -0.114741, 0.0366958, 0.11498, 9.87361, 0.0305176, 0.0457764, 0.0305176, 26.1361, 90839
9392, 0.00287109, 0.0392725, 0.264653, -0.108384, 0.0195711, 0.127212, 9.8785, -0.0152588, 0.0305176, 0.0610352, 26.1503, 90838.6
9402, 0.000820312, 0.0392725, 0.246709, -0.108384, 0.0366958, 0.132105, 9.86137, -0.0915527, -0.0305176, -0.0152588, 26.1409, 90838.8
9412, 0, 0.0430664, 0.246709, -0.114331, 0.0293566, 0.11498, 9.87605, -0.0152588, 0, -0.0152588, 26.1497, 90839.2
9432, 0.00123047, 0.0418359, 0.244556, -0.117612, 0.00733915, 0.122319, 9.88584, -0.0305176, -0.0305176, 0.0457764, 26.1442, 90839
9442, -0.000410156, 0.0434766, 0.263833, -0.107153, 0.0195711, 0.119873, 9.86382, 0.0305176, 0.0762939, -0.0305176, 26.148, 90838.9
9452, 0.00164062, 0.0434766, 0.247119, -0.107153, 0.0244638, 0.139444, 9.88095, 0.0305176, -0.0305176, -0.0457764, 26.1476, 90839.6
9462, -0.00164062, 0.0418359, 0.264243, -0.115972, 0.0220175, 0.122319, 9.88829, 0.0152588, -0.0305176, -0.0152588, 26.1427, 90839.6
9472, -0.00164062, 0.0414258, 0.264243, -0.110947, 0.031803, 0.124766, 9.86137, -0.0152588, -0.0152588, 0.0610352, 26.1528, 90839.3
9482, 0, 0.0392725, 0.24999, -0.115562, 0.00733915, 0.132105, 9.88584, -0.0305176, -0.0152588, 0, 26.1419, 90838.9
9492, -0.000410156, 0.0414258, 0.261782, -0.110947, 0.0342494, 0.0929626, 9.88095, 0.0152588, 0.0457764, 0.0152588, 26.1457, 90839.2
9512, -0.000410156, 0.0397852, 0.261782, -0.114741, 0.0342494, 0.122319, 9.86137, -0.0457764, 0.0305176, -0.0152588, 26.1541, 90839.7
9522, -0.000410156, 0.0414258, 0.261782, -0.107563, 0.0293566, 0.117426, 9.86871, -0.0610352, -0.0152588, 0.0305176, 26.15, 90840
9532, -0.000820312, 0.0376318, 0.253374, -0.113921, 0.0269102, 0.112534, 9.87361, 0.0152588, 0, 0.0457764, 26.1549, 90839.2
9542, -0.00123047, 0.0426563, 0.258809, -0.112588, 0.0415885, 0.129658, 9.85159, -0.0305176, 0.0305176, -0.0457764, 26.1533, 90838.7
9552, -0.000410156, 0.0384521, 0.253784, -0.112588, 0.0122319, 0.134551, 9.87605, -0.0152588, 0.0305176, 0.0152588, 26.138, 90838.7
9562, -0.00205078, 0.0384521, 0.257168, -0.112588, 0.0391421, 0.124766, 9.87605, 0.0457764, 0.0305176, 0.0305176, 26.1568, 90839.1
9572, 0.00123047, 0.0434766, 0.257168, -0.109307, 0.0391421, 0.132105, 9.88095, 0.0457764, 0.0152588, -0.0152588, 26.1456, 90838.9
9582, 0.00123047, 0.0392725, 0.255015, -0.113921, 0.0220175, 0.11498, 9.8785, -0.167847, 0, 0.0762939, 26.1615, 90839.2
9602, 0.000820312, 0.0392725, 0.257168, -0.110947, 0.0269102, 0.110087, 9.87361, -0.0457764, 0.0915527, 0.0152588, 26.1566, 90838.9
9612, 0.00287109, 0.0392725, 0.251733, -0.110947, 0.0342494, 0.119873, 9.87605, -0.0152588, -0.0152588, 0, 26.1489, 90839.4
9622, -0.00123047, 0.0426563, 0.251733, -0.112588, 0.0269102, 0.117426, 9.88339, -0.0457764, -0.0915527, 0.0610352, 26.1441, 90839.2
9632, -0.00123047, 0.0410156, 0.260039, -0.110537, 0.0195711, 0.11498, 9.8785, -0.0305176, 0, 0, 26.1438, 90838.6
9642, -0.000410156, 0.0434766, 0.24876, -0.112178, 0.031803, 0.11498, 9.88339, -0.0610352, 0.0152588, -0.0152588, 26.1475, 90839
9652, 0.000820312, 0.0430664, 0.258398, -0.110537, 0.0244638, 0.117426, 9.87361, 0.0152588, 0.0762939, -0.0152588, 26.1496, 90838.5
9662, 0.000410156, 0.0430664, 0.24876, -0.110537, 0.0366958, 0.129658, 9.84914, -0.0152588, 0.0305176, -0.0152588, 26.1565, 90838.8
9682, 0.00164062, 0.0388623, 0.263013, -0.106743, 0.0269102, 0.136998, 9.88095, 0.0305176, 0, -0.0305176, 26.1547, 90838.9
9692, 0.00287109, 0.0426563, 0.245786, -0.111768, 0.0220175, 0.11498, 9.88829, 0.0152588, -0.0305176, 0, 26.1559, 90839.1
9702, -0.000820312, 0.0410156, 0.265884, -0.107974, 0.0415885, 0.117426, 9.87605, 0.0457764, 0, -0.0305176, 26.1491, 90839.3
9712, 0.00164062, 0.0430664, 0.244966, -0.107974, 0.0342494, 0.129658, 9.87605, -0.0457764, -0.0610352, 0.0457764, 26.1547, 90839.2
9722, 0.000410156, 0.0430664, 0.263013, -0.115562, 0.0220175, 0.119873, 9.86871, -0.0305176, -0.0152588, 0, 26.1549, 90839.1
9732, 0.000410156, 0.0418359, 0.263013, -0.107974, 0.0342494, 0.127212, 9.87361, -0.0762939, -0.0152588, 0, 26.1473, 90838.7
9742, 0.000410156, 0.0438867, 0.246709, -0.114331, 0.0415885, 0.124766, 9.86382, -0.0305176, -0.0152588, 0.0457764, 26.1392, 90839
9752, 0.000820312, 0.0397852, 0.264653, -0.106333, 0.031803, 0.112534, 9.85893, -0.0915527, -0.0305176, -0.0457764, 26.1514, 90838.6
9772, 0.000410156, 0.0406055, 0.265063, -0.115972, 0.0146783, 0.132105, 9.88095, -0.0305176, -0.0762939, -0.0305176, 26.1467, 90839.2
9782, 0.000820312, 0.0397852, 0.265063, -0.108896, 0.0269102, 0.129658, 9.86627, 0.0762939, 0.0610352, 0.0152588, 26.146, 90838.8
9792, 0.000820312, 0.0442969, 0.244966, -0.115972, 0.00733915, 0.14189, 9.89073, -0.0152588, -0.0610352, 0.0610352, 26.1505, 90839.1
9802, 0.00205078, 0.0410156, 0.263013, -0.107563, 0.0171247, 0.119873, 9.87361, -0.0457764, 0.0152588, 0.0305176, 26.1486, 90838.9
9812, 0.000820312, 0.0418359, 0.24835, -0.107563, 0.0195711, 0.132105, 9.87361, -0.0457764, 0.0610352, 0, 26.1485, 90838.7
9822, 0.00246094, 0.0418359, 0.261782, -0.116792, 0.031803, 0.112534, 9.88339, 0, -0.0152588, 0.0305176, 26.1476, 90838.8
9832, -0.00205078, 0.0418359, 0.261782, -0.108896, 0.0440349, 0.102748, 9.88829, -0.0152588, 0.0762939, 0.0152588, 26.1539, 90838.8
9852, 0.00205078, 0.0414258, 0.264243, -0.107563, 0.0293566, 0.124766, 9.88584, 0.0152588, 0.12207, 0.0152588, 26.1502, 90839.4
9862, 0.00205078, 0.0418359, 0.24917, -0.115562, 0.0293566, 0.136998, 9.86627, -0.0610352, 0, -0.0305176, 26.1506, 90839.1
9872, 0.00123047, 0.0418359, 0.258809, -0.115562, 0.0122319, 0.127212, 9.88829, -0.0610352, 0.0305176, -0.0152588, 26.155, 90838.9
9882, 0.000820312, 0.0422461, 0.247939, -0.108384, 0.0195711, 0.110087, 9.85893, -0.0305176, 0.0457764, 0.0762939, 26.1479, 90838.9
9892, 0.000820312, 0.0426563, 0.247939, -0.112588, 0.0220175, 0.122319, 9.87116, 0, -0.0457764, 0.0152588, 26.1522, 90838.6
9902, 0.00287109, 0.0418359, 0.255015, -0.109307, 0.0269102, 0.11498, 9.88095, 0.0152588, 0, -0.0152588, 26.1453, 90839
9912, 0.00369141, 0.0376318, 0.252964, -0.112588, 0.0464813, 0.127212, 9.86137, -0.0152588, 0.0457764, 0.0305176, 26.1596, 90839.7
9922, 0.000410156, 0.0434766, 0.258398, -0.112588, 0.031803, 0.122319, 9.87116, -0.0152588, 0.0915527, 0.0152588, 26.1488, 90838.8
9942, 0, 0.0430664, 0.253784, -0.115972, 0.00733915, 0.11498, 9.88095, -0.0305176, 0, 0, 26.157, 90839.3
9952, 0.00246094, 0.0426563, 0.253374, -0.109717, 0.0220175, 0.11498, 9.87605, -0.0610352, 0.152588, 0, 26.1448, 90838.7
9962, 0.00205078, 0.0406055, 0.256245, -0.111357, 0.0293566, 0.11498, 9.88584, 0, -0.0152588, -0.0305176, 26.1569, 90838.6
9972, 0.000820312, 0.0452197, 0.251733, -0.111357, 0.0220175, 0.127212, 9.87361, 0.0457764, 0.0305176, 0.0305176, 26.1551, 90838.8
9982, 0.000410156, 0.0452197, 0.259219, -0.112998, 0.0391421, 0.110087, 9.87116, -0.0457764, 0.0152588, 0.0305176, 26.1635, 90839.8
9992, 0.000820312, 0.0414258, 0.259219, -0.112588, 0.0244638, 0.132105, 9.88095, -0.0152588, 0.0305176, 0, 26.16, 90839.7
10002, 0.000820312, 0.0418359, 0.24999, -0.112998, 0.0220175, 0.134551, 9.87605, -0.0762939, 0.12207, 0, 26.1522, 90838.5
10022, 0.00369141, 0.0430664, 0.24835, -0.111768, 0.0293566, 0.107641, 9.86871, -0.0762939, 0.0457764, 0.0152588, 26.159, 90838.9
10033, 0.000820312, 0.0430664, 0.262192, -0.114331, 0.0244638, 0.124766, 9.86627, -0.0762939, -0.0915527, 0, 26.1606, 90838.7
10042, 0.00123047, 0.038042, 0.262192, -0.110127, 0.0195711, 0.122319, 9.87605, -0.0305176, 0.0610352, 0.0457764, 26.1644, 90839
10052, 0.00123047, 0.0430664, 0.246709, -0.114331, 0.0415885, 0.119873, 9.86627, -0.0152588, 0, 0.0610352, 26.1583, 90838.9
10062, 0.00287109, 0.0414258, 0.26127, -0.107563, 0.0269102, 0.124766, 9.88339, 0.0457764, -0.0610352, 0.0152588, 26.1524, 90839.1
10072, 0.000410156, 0.0434766, 0.244556, -0.114331, 0.0366958, 0.11498, 9.87116, -0.0457764, 0.106812, 0.0457764, 26.1602, 90838.8
10082, 0, 0.0434766, 0.26127, -0.114331, 0.0293566, 0.136998, 9.89073, -0.0915527, 0.0457764, 0, 26.1488, 90839
10092, 0.00123047, 0.0384521, 0.245376, -0.107974, 0.0269102, 0.102748, 9.87361, 0.0305176, 0.0915527, 0.0152588, 26.1742, 90838.8
10112, -0.000410156, 0.0410156, 0.264653, -0.108896, 0.0244638, 0.129658, 9.87361, 0.0305176, 0.137329, -0.0762939, 26.1489, 90838.5
10122, 0.000410156, 0.0426563, 0.246709, -0.115972, 0.0415885, 0.107641, 9.8785, 0.0457764, 0.0762939, 0.0457764, 26.1542, 90839.2
10132, 0.00205078, 0.0426563, 0.265474, -0.115972, 0.0244638, 0.132105, 9.87116, 0.0305176, 0.0457764, -0.0152588, 26.1639, 90839.2
10142, 0.00369141, 0.0401953, 0.244145, -0.108384, 0.031803, 0.122319, 9.87361, -0.0762939, 0.183105, 0.0152588, 26.1707, 90838.8
10152, 0.00369141, 0.0401953, 0.244145, -0.112998, 0.031803, 0.11498, 9.88095, -0.0152588, -0.0152588, -0.0305176, 26.1653, 90838.8
10162, 0.00205078, 0.0401953, 0.265884, -0.108384, 0.0244638, 0.117426, 9.87605, 0.0457764, -0.0305176, 0.0305176, 26.1645, 90838.9
10172, 0.00410156, 0.0401953, 0.244966, -0.114741, 0.0293566, 0.129658, 9.85893, 0.0305176, 0.0152588, 0, 26.1612, 90838.8
10192, -0.000410156, 0.0418359, 0.246196, -0.106743, 0.0171247, 0.132105, 9.87605, 0.0152588, 0, 0, 26.166, 90838.6
10202, 0.00123047, 0.0442969, 0.246196, -0.115562, 0.0293566, 0.122319, 9.86627, -0.0152588, 0.106812, 0.0457764, 26.1636, 90838.6
10212, 0.00123047, 0.0414258, 0.26127, -0.109307, 0.00489277, 0.102748, 9.88584, -0.0457764, -0.0152588, 0.0457764, 26.1556, 90838.9
10222, -0.000410156, 0.0422461, 0.24835, -0.114741, 0.0220175, 0.127212, 9.86627, -0.0610352, 0.0610352, 0.0457764, 26.1688, 90838.7
10232, 0.00164062, 0.0410156, 0.260449, -0.114741, 0.0244638, 0.134551, 9.85404, -0.0305176, 0.0457764, 0.0610352, 26.163, 90838.4
10242, 0, 0.0410156, 0.2504, -0.107153, 0.0342494, 0.11498, 9.85648, -0.0305176, -0.0457764, 0.0305176, 26.1577, 90838.9
10252, 0.00287109, 0.0414258, 0.2504, -0.115151, 0.0171247, 0.124766, 9.86627, -0.0305176, 0.106812, 0, 26.1547, 90838.2
10262, 0.00287109, 0.0410156, 0.259629, -0.107153, 0.0195711, 0.122319, 9.86382, -0.0457764, 0.0152588, 0, 26.1656, 90839.2
10282, 0.00164062, 0.0426563, 0.255015, -0.111768, 0.0391421, 0.122319, 9.88095, 0, 0.0610352, 0, 26.1655, 90838.7
10292, 0.00164062, 0.0426563, 0.254604, -0.111768, 0.0391421, 0.107641, 9.87361, 0.0610352, 0.0305176, 0, 26.1678, 90839
10302, 0, 0.0406055, 0.255015, -0.110537, 0.0171247, 0.11498, 9.88339, -0.0305176, 0.0457764, 0, 26.1748, 90839
10312, 0, 0.0442969, 0.255015, -0.108896, 0.0220175, 0.134551, 9.85648, 0, -0.0152588, -0.0152588, 26.1616, 90838.4
10322, 0.00123047, 0.0410156, 0.256245, -0.112998, 0.0269102, 0.127212, 9.86627, 0.0305176, 0.0305176, -0.0305176, 26.1676, 90839.2
10332, 0.00164062, 0.0434766, 0.252554, -0.110947, 0.0195711, 0.132105, 9.88095, 0, -0.0610352, -0.0152588, 26.1694, 90839.2
10342, -0.00205078, 0.0434766, 0.256245, -0.110947, 0.0391421, 0.129658, 9.86871, -0.0152588, 0.0762939, 0.0305176, 26.1673, 90838.7
10362, 0.000410156, 0.0434766, 0.251221, -0.113511, 0.0269102, 0.119873, 9.86871, -0.0152588, -0.0305176, 0.0610352, 26.1767, 90838.6
10372, 0.000410156, 0.0397852, 0.26127, -0.108896, 0.0195711, 0.110087, 9.86871, -0.0152588, 0.0305176, 0, 26.1657, 90839.2
10382, 0.00123047, 0.04604, 0.24835, -0.112998, 0.0440349, 0.119873, 9.8418, 0.0152588, -0.12207, -0.0152588, 26.1663, 90839.4
10392, 0.000410156, 0.0388623, 0.259629, -0.112998, 0.0195711, 0.127212, 9.88829, -0.0762939, 0, 0.0915527, 26.1617, 90839
10402, 0.00164062, 0.0388623, 0.247939, -0.109717, 0.0269102, 0.122319, 9.88584, 0.0610352, 0, 0.0610352, 26.1695, 90839.4
10412, 0.00164062, 0.0410156, 0.247939, -0.112588, 0.031803, 0.136998, 9.86382, 0.0915527, 0.0915527, 0.0152588, 26.17, 90838.8
10422, 0.00164062, 0.0410156, 0.264653, -0.109717, 0.00978554, 0.139444, 9.8785, -0.0457764, -0.0152588, 0.0305176, 26.162, 90839.3
10432, 0.00205078, 0.0426563, 0.24917, -0.114741, 0.0391421, 0.122319, 9.86871, -0.0457764, -0.0610352, 0.0152588, 26.1677, 90838.6
10452, 0.000820312, 0.0397852, 0.24958, -0.109307, 0.00489277, 0.127212, 9.86137, 0.0152588, 0.0152588, 0.0152588, 26.1656, 90839
10462, 0.000820312, 0.0442969, 0.24958, -0.115151, 0.0342494, 0.119873, 9.86871, -0.0457764, -0.0152588, 0.0152588, 26.1762, 90839.1
10472, 0.000820312, 0.0392725, 0.263013, -0.107974, 0.0293566, 0.110087, 9.8785, -0.0305176, -0.0152588, -0.0152588, 26.1695, 90838.7
10482, 0.00123047, 0.0426563, 0.244145, -0.114331, 0.0342494, 0.132105, 9.86871, -0.0305176, 0, 0, 26.1762, 90838.9
10492, 0.00205078, 0.0392725, 0.265884, -0.109717, 0.0269102, 0.129658, 9.88829, -0.0305176, 0.0762939, 0, 26.1661, 90838.6
10502, 0.000410156, 0.0392725, 0.243325, -0.109717, 0.0366958, 0.127212, 9.87116, 0, -0.0457764, -0.0305176, 26.1676, 90838.8
10512, 0.000820312, 0.0422461, 0.262192, -0.116792, 0.0513741, 0.129658, 9.86627, 0.0152588, 0.0305176, 0, 26.1766, 90838.8
10522, 0.000820312, 0.0397852, 0.262192, -0.110537, 0.0220175, 0.119873, 9.8785, 0.0457764, -0.0610352, -0.0152588, 26.1708, 90839.2
10542, 0.000820312, 0.0418359, 0.264653, -0.108384, 0.0171247, 0.136998, 9.87116, -0.0152588, 0.0610352, 0, 26.1758, 90838.9
10552, 0, 0.0418359, 0.247939, -0.108384, 0.0220175, 0.144337, 9.87116, -0.0762939, -0.0457764, 0.0610352, 26.1727, 90838.9
10562, 0.00246094, 0.0414258, 0.26127, -0.115972, 0.031803, 0.132105, 9.87116, -0.0152588, -0.0457764, 0.0152588, 26.1661, 90839
10572, 0, 0.0422461, 0.26127, -0.106743, 0.0342494, 0.119873, 9.87116, -0.0152588, -0.0305176, 0.0152588, 26.1719, 90839.1
10582, 0, 0.0414258, 0.24917, -0.114741, 0.0366958, 0.119873, 9.89562, 0, 0, 0.0305176, 26.1787, 90839.7
10592, 0.00164062, 0.0410156, 0.262603, -0.110537, 0.0195711, 0.117426, 9.86627, -0.0457764, -0.0305176, 0, 26.1756, 90839.7
10602, 0.00164062, 0.0426563, 0.24999, -0.110537, 0.0244638, 0.127212, 9.88584, -0.0152588, -0.0457764, 0.0915527, 26.1798, 90838.8
10622, -0.000410156, 0.0410156, 0.260449, -0.110947, 0.0366958, 0.122319, 9.86382, 0.0305176, 0.0915527, -0.0152588, 26.1694, 90838.6
10632, -0.000410156, 0.0418359, 0.24917, -0.112998, 0.0293566, 0.122319, 9.87116, 0, 0.0762939, -0.0152588, 26.1697, 90839
10642, 0, 0.0426563, 0.256758, -0.110127, 0.0244638, 0.122319, 9.89807, 0.0152588, -0.0457764, 0.0610352, 26.1749, 90838.8
10652, 0.00123047, 0.0418359, 0.251221, -0.110127, 0.0244638, 0.122319, 9.85648, 0, -0.0305176, 0, 26.1737, 90838.6
10662, 0.00164062, 0.0418359, 0.252554, -0.115972, 0.0269102, 0.124766, 9.87116, 0.0305176, 0.0152588, 0.0152588, 26.1742, 90839.1
10672, 0.00205078, 0.0410156, 0.252554, -0.111768, 0.0220175, 0.132105, 9.8785, -0.0762939, 0.0152588, -0.0305176, 26.1872, 90839.2
10682, 0.00205078, 0.0418359, 0.254604, -0.110127, 0.0269102, 0.134551, 9.86627, -0.0762939, 0.0610352, 0.0152588, 26.1767, 90839.3
10692, 0.000410156, 0.0422461, 0.254604, -0.113511, 0.0269102, 0.122319, 9.87361, -0.0762939, -0.0152588, -0.0305176, 26.1864, 90838.9
10712, 0.00205078, 0.0410156, 0.24917, -0.111768, 0.0220175, 0.122319, 9.8785, 0, -0.0152588, -0.0152588, 26.1868, 90838.7
10722, 0.000820312, 0.0448096, 0.257168, -0.111768, 0.0122319, 0.129658, 9.86871, -0.0915527, 0.0457764, -0.0457764, 26.1863, 90839
10732, 0.000820312, 0.0414258, 0.257168, -0.109717, 0.0171247, 0.124766, 9.88095, -0.0762939, 0.0457764, -0.0152588, 26.1845, 90838.8
10742, 0.00205078, 0.0401953, 0.247529, -0.113511, 0.0342494, 0.117426, 9.85648, 0.0152588, -0.0152588, 0.0457764, 26.1749, 90838.6
10752, 0.000410156, 0.038042, 0.260859, -0.111768, 0.0171247, 0.127212, 9.86627, -0.0305176, -0.0610352, 0.0305176, 26.1735, 90839.5
10762, 0.00123047, 0.038042, 0.24876, -0.111768, 0.0342494, 0.129658, 9.8785, 0.0305176, 0.106812, 0.0457764, 26.1827, 90838.4
10772, 0.00287109, 0.0410156, 0.262603, -0.114331, 0.0366958, 0.122319, 9.8785, -0.0152588, -0.0152588, -0.0152588, 26.1664, 90838.9
10792, 0.000410156, 0.0414258, 0.245786, -0.115972, 0.00733915, 0.136998, 9.89073, -0.0457764, 0.0610352, -0.0457764, 26.1682, 90839.2
10802, 0.00287109, 0.0397852, 0.264653, -0.107153, 0.0220175, 0.127212, 9.88339, -0.0457764, 0, 0.0152588, 26.1918, 90838.8
10812, 0.00123047, 0.0397852, 0.243325, -0.107153, 0.0269102, 0.136998, 9.86137, 0.0915527, -0.0610352, 0.0457764, 26.1866, 90839.5
10822, 0.00205078, 0.0422461, 0.265063, -0.112998, 0.0293566, 0.112534, 9.88095, -0.0610352, 0.0610352, 0.0152588, 26.1846, 90838.8
10832, -0.000820312, 0.0418359, 0.265063, -0.107563, 0.0366958, 0.129658, 9.88339, -0.0152588, 0.0762939, 0.0152588, 26.1854, 90838.9
10842, -0.000820312, 0.0434766, 0.243735, -0.117612, 0.0171247, 0.117426, 9.86137, 0, -0.0457764, 0, 26.1662, 90839.1
10852, 0.000410156, 0.0397852, 0.263833, -0.105923, 0.0244638, 0.117426, 9.90052, -0.0152588, -0.0610352, 0.0305176, 26.1789, 90839
10862, 0.00205078, 0.0410156, 0.245376, -0.105923, 0.0269102, 0.129658, 9.87361, 0.0152588, -0.0152588, 0.0610352, 26.1677, 90838.6
10882, 0.00246094, 0.0401953, 0.265884, -0.107563, 0.0244638, 0.127212, 9.86627, -0.0915527, -0.0152588, -0.0152588, 26.1801, 90838.7
10892, 0.00246094, 0.0430664, 0.245376, -0.115151, 0.0244638, 0.11498, 9.87116, 0.0457764, 0.0305176, -0.0152588, 26.1777, 90839
10902, 0.00369141, 0.0397852, 0.264243, -0.107974, 0.0366958, 0.132105, 9.86627, -0.0610352, 0, 0, 26.1806, 90839
10912, -0.000820312, 0.0410156, 0.24835, -0.118022, 0.0269102, 0.144337, 9.87605, -0.0457764, -0.0305176, -0.0305176, 26.1699, 90839.2
10922, 0, 0.0410156, 0.263423, -0.118022, 0.0342494, 0.11498, 9.88339, 0, -0.0152588, 0.0152588, 26.1942, 90838.8
10932, 0.000820312, 0.038042, 0.247939, -0.106743, 0.0366958, 0.119873, 9.8418, -0.0457764, -0.0762939, 0.0152588, 26.1793, 90838.8
10942, 0.000820312, 0.0410156, 0.247939, -0.115151, 0.0415885, 0.132105, 9.88339, 0.0152588, 0.0305176, -0.0305176, 26.1735, 90838.4
10962, 0.00205078, 0.0406055, 0.2504, -0.115562, 0.0415885, 0.11498, 9.87361, -0.0305176, 0.0152588, 0.0457764, 26.1896, 90838.6
10972, 0.00123047, 0.0406055, 0.260039, -0.115562, 0.0415885, 0.122319, 9.8785, -0.0457764, 0, 0, 26.1923, 90838.5
10982, 0.00205078, 0.0410156, 0.252964, -0.108384, 0.0220175, 0.11498, 9.8785, 0.0610352, 0.0610352, -0.0305176, 26.1799, 90838.7
10992, 0.00205078, 0.0406055, 0.252964, -0.115562, 0.0220175, 0.127212, 9.86871, 0.0610352, 0, -0.0305176, 26.185, 90839
11002, 0.00205078, 0.0434766, 0.258398, -0.110127, 0.0464813, 0.117426, 9.8785, -0.0305176, 0.0610352, -0.0305176, 26.19, 90839
11012, 0.000820312, 0.0414258, 0.253784, -0.113511, 0.0244638, 0.122319, 9.8785, -0.0152588, -0.0762939, 0.0152588, 26.1892, 90838.6
11022, 0, 0.0414258, 0.255425, -0.113511, 0.0220175, 0.134551, 9.86871, 0, 0.0457764, 0.0305176, 26.1854, 90838.9
11032, 0.00205078, 0.0422461, 0.253374, -0.107974, 0.0293566, 0.124766, 9.86382, 0.0305176, -0.0305176, -0.0152588, 26.1835, 90838.5
11052, 0, 0.0418359, 0.252964, -0.108896, 0.0146783, 0.122319, 9.87361, 0.0152588, 0.0305176, -0.0152588, 26.1959, 90839
11062, 0.00123047, 0.0397852, 0.258809, -0.112588, 0.0171247, 0.11498, 9.88339, -0.0762939, -0.0305176, 0.0152588, 26.1909, 90839
11072, 0, 0.0438867, 0.251733, -0.112588, 0.031803, 0.117426, 9.85648, -0.0152588, 0.0152588, 0, 26.1871, 90838.3
11082, 0.00246094, 0.0438867, 0.260859, -0.112588, 0.0269102, 0.110087, 9.88095, -0.0762939, -0.0305176, 0.0610352, 26.2004, 90838.4
11092, 0.00164062, 0.0376318, 0.260859, -0.112588, 0.031803, 0.129658, 9.86137, 0.0457764, -0.0152588, -0.0152588, 26.1875, 90838.9
11102, 0.00164062, 0.0430664, 0.24876, -0.114741, 0.0391421, 0.129658, 9.86871, -0.0610352, -0.0152588, 0.0457764, 26.1895, 90838.6
11112, 0.000410156, 0.0406055, 0.263013, -0.110537, 0.0366958, 0.107641, 9.88829, 0, 0.0305176, 0.0610352, 26.1827, 90838.9
11132, 0.00164062, 0.0422461, 0.264243, -0.113511, 0.031803, 0.11498, 9.88584, -0.0152588, 0.0152588, 0.0610352, 26.1926, 90838.3
11142, 0.000820312, 0.0388623, 0.250811, -0.110947, 0.0122319, 0.124766, 9.88095, 0, -0.0305176, 0.0152588, 26.1934, 90838.8
11152, 0.000820312, 0.0430664, 0.250811, -0.114331, 0.0293566, 0.127212, 9.86871, -0.0762939, -0.0305176, -0.0457764, 26.1877, 90838.9
11162, 0.00328125, 0.0384521, 0.263423, -0.110127, 0.0269102, 0.110087, 9.87116, 0.0152588, -0.0915527, 0.0305176, 26.1925, 90838.7
11172, 0.000410156, 0.0438867, 0.246709, -0.114331, 0.0195711, 0.144337, 9.8785, -0.0152588, 0.0305176, 0.106812, 26.1911, 90838.9
11182, 0.00123047, 0.0438867, 0.263423, -0.114331, 0.031803, 0.11498, 9.86871, -0.0457764, -0.0152588, 0.0305176, 26.1996, 90839
11192, 0.000820312, 0.0418359, 0.247939, -0.110127, 0.0415885, 0.112534, 9.87605, -0.0457764, -0.0915527, 0.0305176, 26.199, 90838.2
11202, 0.00205078, 0.0452197, 0.247939, -0.116382, 0.0293566, 0.117426, 9.87361, -0.0305176, 0.0305176, 0.0457764, 26.1911, 90838.7
11222, -0.000410156, 0.0426563, 0.244966, -0.115972, 0.0366958, 0.112534, 9.88339, -0.0457764, 0.0762939, -0.0152588, 26.1855, 90838.3
11232, 0.00246094, 0.0426563, 0.264243, -0.115972, 0.0269102, 0.122319, 9.88829, 0.0152588, 0.0457764, 0, 26.1964, 90838.9
11242, 0.00164062, 0.0414258, 0.246709, -0.107153, 0.0220175, 0.132105, 9.88339, 0.0305176, -0.0305176, -0.0305176, 26.1979, 90839.5
11252, 0.00123047, 0.0434766, 0.246709, -0.117612, 0.0342494, 0.136998, 9.86382, 0, -0.0610352, 0.0152588, 26.1924, 90838.5
11262, 0.00123047, 0.0418359, 0.264653, -0.105513, 0.0195711, 0.124766, 9.88584, -0.0152588, 0.0305176, -0.0305176, 26.1816, 90838.5
11272, 0.00123047, 0.0422461, 0.24835, -0.113511, 0.0342494, 0.136998, 9.84425, -0.0457764, 0, 0, 26.1953, 90838.7
11282, 0, 0.0410156, 0.262603, -0.113511, 0.0171247, 0.122319, 9.86627, -0.0610352, 0.0457764, 0.0305176, 26.1973, 90838.5
11302, 0.000820312, 0.0426563, 0.247529, -0.114331, 0.0269102, 0.110087, 9.86627, -0.0152588, 0.0152588, -0.0152588, 26.1971, 90838.2
11312, 0.000820312, 0.0430664, 0.261782, -0.106333, 0.0195711, 0.11498, 9.87116, -0.0305176, 0.0152588, 0, 26.1924, 90838.6
11322, 0, 0.0414258, 0.247939, -0.112588, 0.0195711, 0.127212, 9.87605, -0.0762939, 0.0915527, 0, 26.1881, 90837.8
11332, 0, 0.0401953, 0.260449, -0.112588, 0.0342494, 0.136998, 9.88829, -0.0457764, -0.0457764, 0, 26.1938, 90838.7
11342, 0.00246094, 0.0401953, 0.251733, -0.107974, 0.031803, 0.117426, 9.85893, -0.0457764, -0.0152588, -0.0152588, 26.1968, 90838.1
11352, 0.00328125, 0.0414258, 0.251733, -0.115562, 0.0366958, 0.136998, 9.86382, -0.0762939, -0.0152588, 0.0305176, 26.201, 90838.6
11362, -0.000410156, 0.0406055, 0.260449, -0.109307, 0.0269102, 0.132105, 9.87605, 0.0152588, 0.0457764, 0.0915527, 26.1995, 90838.4
11372, -0.000410156, 0.0418359, 0.252554, -0.115151, 0.0342494, 0.124766, 9.85893, 0.0152588, 0.0152588, 0.0305176, 26.201, 90838.5
11392, 0.000820312, 0.0422461, 0.255015, -0.109717, 0.0342494, 0.119873, 9.86871, 0, 0.0610352, 0.0152588, 26.1926, 90838.8
11402, 0.00205078, 0.0401953, 0.255015, -0.114741, 0.0342494, 0.11498, 9.87605, -0.0305176, -0.106812, -0.0152588, 26.1922, 90838.5
11412, 0.00123047, 0.0422461, 0.255015, -0.110537, 0.0366958, 0.129658, 9.86627, -0.0152588, -0.0152588, -0.0305176, 26.2045, 90838.5
11422, 0.00123047, 0.0410156, 0.254194, -0.112588, 0.0391421, 0.122319, 9.8785, 0, 0.0305176, 0.0152588, 26.194, 90839.3
11432, 0.00164062, 0.0422461, 0.254194, -0.112998, 0.0244638, 0.14189, 9.88339, -0.0305176, -0.0457764, 0.0305176, 26.1895, 90838.7
11442, 0.00246094, 0.0422461, 0.260039, -0.112998, 0.0366958, 0.11498, 9.83936, -0.0457764, 0.0152588, 0.0305176, 26.1999, 90838.7
11452, 0.00205078, 0.0418359, 0.252144, -0.112998, 0.00978554, 0.11498, 9.89318, -0.0610352, 0, 0, 26.1973, 90838.6
11472, -0.000820312, 0.0397852, 0.263013, -0.113921, 0.0342494, 0.119873, 9.86871, -0.0457764, -0.0152588, -0.0305176, 26.1955, 90838.2
11482, 0.00123047, 0.0422461, 0.24835, -0.112178, 0.0220175, 0.119873, 9.87361, -0.0152588, 0.0152588, -0.0610352, 26.1916, 90838
11492, -0.00123047, 0.0422461, 0.26127, -0.112178, 0.0513741, 0.127212, 9.87605, -0.0152588, -0.0152588, 0.0152588, 26.2099, 90838.8
11502, 0, 0.0397852, 0.247119, -0.111768, 0.0342494, 0.119873, 9.87116, 0.0305176, -0.0152588, -0.0152588, 26.1983, 90838.4
11512, 0.000410156, 0.0426563, 0.247119, -0.112178, 0.0244638, 0.124766, 9.86627, -0.0152588, 0, -0.0305176, 26.195, 90838.7
11522, 0.000410156, 0.0406055, 0.263013, -0.109307, 0.0293566, 0.122319, 9.88095, -0.0610352, 0.0152588, 0, 26.2058, 90838.8
11532, 0, 0.0426563, 0.247119, -0.114331, 0.0220175, 0.105195, 9.86382, -0.0457764, 0, 0, 26.1996, 90839
11542, -0.00123047, 0.0406055, 0.264243, -0.114331, 0.0269102, 0.129658, 9.88584, 0.0152588, 0.0152588, 0.0305176, 26.1943, 90838.6
11562, -0.000410156, 0.0426563, 0.242915, -0.115151, 0.0195711, 0.11498, 9.86627, 0.0152588, 0, 0.0610352, 26.1998, 90839.4
11572, 0.000410156, 0.0392725, 0.263013, -0.106743, 0.0195711, 0.122319, 9.88829, -0.0305176, 0.0152588, 0.0457764, 26.1878, 90838.4
11582, 0.000410156, 0.0448096, 0.246196, -0.112588, 0.0244638, 0.112534, 9.87116, 0, 0.0457764, 0.0305176, 26.1895, 90838.9
11592, 0.000410156, 0.0414258, 0.265884, -0.109307, 0.0464813, 0.112534, 9.86627, -0.0457764, -0.0457764, -0.0457764, 26.2022, 90838.8
11602, 0.00369141, 0.0414258, 0.244966, -0.109307, 0.0146783, 0.129658, 9.88829, 0.0305176, 0.0915527, 0.0305176, 26.2084, 90838.7
11612, 0, 0.0430664, 0.260859, -0.113921, 0.0415885, 0.122319, 9.88339, 0.0305176, -0.0457764, -0.0305176, 26.1966, 90838.8
11622, 0.000820312, 0.0376318, 0.260859, -0.107563, 0.00489277, 0.136998, 9.88584, -0.0305176, 0.0305176, -0.0152588, 26.2027, 90838.6
11642, 0.00164062, 0.0384521, 0.260449, -0.107153, 0.0366958, 0.110087, 9.86137, 0, -0.0610352, -0.0152588, 26.1942, 90838.7
11652, -0.00205078, 0.0384521, 0.247119, -0.107153, 0.00978554, 0.11498, 9.86871, 0, 0.106812, 0.0152588, 26.2011, 90839.1
11662, 0, 0.0426563, 0.260449, -0.116792, 0.0269102, 0.119873, 9.88584, -0.0305176, -0.0457764, 0.0762939, 26.2029, 90838.8
11672, 0.000820312, 0.0392725, 0.260449, -0.107563, 0.0244638, 0.11498, 9.89073, -0.0305176, 0.0457764, 0.0152588, 26.1945, 90838.7
11682, 0.000820312, 0.0426563, 0.24835, -0.115151, 0.0293566, 0.129658, 9.85893, -0.0762939, 0.0457764, 0.0762939, 26.2012, 90838.4
11692, 0.00164062, 0.0414258, 0.260449, -0.108896, 0.0269102, 0.146783, 9.87605, 0, 0, 0.0305176, 26.2062, 90838.5
11702, 0.00123047, 0.0414258, 0.247529, -0.108896, 0.0342494, 0.134551, 9.86137, -0.0152588, 0.137329, 0, 26.1992, 90839.2
11712, 0.00205078, 0.0397852, 0.258398, -0.113921, 0.0342494, 0.119873, 9.86871, 0, -0.0610352, 0.0305176, 26.1927, 90838.8
11732, 0.00246094, 0.0434766, 0.251221, -0.114741, 0.031803, 0.11498, 9.86871, -0.0152588, 0.0610352, 0.0152588, 26.1906, 90839.1
11742, 0.00328125, 0.0406055, 0.255835, -0.107563, 0.0195711, 0.119873, 9.8785, -0.0457764, -0.0152588, 0.0305176, 26.202, 90838.2
11752, 0.00164062, 0.0414258, 0.252554, -0.107563, 0.0366958, 0.136998, 9.8467, -0.0457764, 0.106812, 0.0152588, 26.2163, 90838.4
11762, 0.00123047, 0.0414258, 0.254604, -0.114741, 0.0415885, 0.117426, 9.88339, -0.0305176, -0.0152588, -0.0305176, 26.1996, 90838.6
11772, -0.000410156, 0.0422461, 0.254604, -0.109307, 0.0146783, 0.132105, 9.89562, -0.0762939, 0.0610352, 0, 26.1969, 90838.5
11782, -0.000410156, 0.0418359, 0.256758, -0.113921, 0.0391421, 0.119873, 9.85648, 0.0457764, -0.0610352, 0, 26.2113, 90838.8
11792, -0.000410156, 0.0422461, 0.252554, -0.110537, 0.0293566, 0.122319, 9.86871, -0.0305176, 0, 0.0305176, 26.1867, 90838.3
11812, 0.00328125, 0.0410156, 0.252144, -0.113511, 0.0122319, 0.122319, 9.85893, 0.0457764, 0.0305176, 0.0457764, 26.1993, 90837.9
11822, -0.00123047, 0.0426563, 0.260859, -0.111357, 0.0122319, 0.119873, 9.86137, -0.0762939, 0.0610352, -0.0305176, 26.21, 90838.4
11832, 0.000820312, 0.0397852, 0.260859, -0.111768, 0.0195711, 0.11498, 9.88829, -0.0152588, -0.0610352, -0.0152588, 26.2101, 90838.9
11842, 0.000820312, 0.0401953, 0.2504, -0.113921, 0.0244638, 0.105195, 9.87605, -0.0762939, 0.0152588, -0.0457764, 26.1968, 90839
11852, -0.00123047, 0.0397852, 0.262603, -0.110127, 0.0342494, 0.124766, 9.85648, -0.0152588, 0.0152588, -0.0457764, 26.2135, 90838.9
11862, -0.000410156, 0.0397852, 0.24958, -0.110127, 0.0220175, 0.127212, 9.88829, -0.0610352, 0.0915527, -0.0152588, 26.2087, 90838.6
11872, 0, 0.0442969, 0.262192, -0.113921, 0.0366958, 0.124766, 9.86871, -0.0152588, -0.0305176, 0.0152588, 26.2097, 90838.4
11882, 0.000410156, 0.0401953, 0.262192, -0.107563, 0.0146783, 0.144337, 9.87605, -0.0305176, -0.0610352, -0.0305176, 26.2024, 90839
11902, 0.00123047, 0.0406055, 0.263833, -0.107563, 0.0342494, 0.117426, 9.85648, 0.0152588, -0.0305176, 0, 26.2083, 90838.5
11912, 0.000820312, 0.0406055, 0.247119, -0.107563, 0.0244638, 0.127212, 9.86871, 0, 0.0610352, 0, 26.2122, 90838.4
11922, -0.000410156, 0.0430664, 0.266294, -0.115562, 0.0195711, 0.11498, 9.87116, -0.0457764, 0.0152588, -0.0610352, 26.1995, 90838.7
11932, 0.00123047, 0.0397852, 0.266294, -0.109717, 0.031803, 0.144337, 9.87116, 0.0610352, -0.0152588, 0.0457764, 26.2076, 90838
11942, 0.00123047, 0.0410156, 0.246196, -0.114331, 0.0464813, 0.117426, 9.87605, 0.0457764, -0.0610352, 0.0305176, 26.2078, 90838.9
11952, 0.00369141, 0.0384521, 0.264653, -0.107974, 0.0293566, 0.129658, 9.87116, 0.0152588, -0.0305176, 0.0152588, 26.2168, 90838.4
11962, 0, 0.0442969, 0.244966, -0.107974, 0.0293566, 0.139444, 9.86382, -0.0610352, 0, -0.0305176, 26.2177, 90838.6
11972, 0.000410156, 0.0442969, 0.263833, -0.115151, 0.0366958, 0.119873, 9.85648, -0.0152588, 0.0305176, 0.0305176, 26.2024, 90838.8
11992, 0.000410156, 0.0434766, 0.247529, -0.115562, 0.031803, 0.124766, 9.8785, 0, 0.0610352, -0.0457764, 26.2099, 90838.4
12002, 0.000410156, 0.0392725, 0.262603, -0.107153, 0.0366958, 0.132105, 9.86627, -0.0305176, 0.0305176, -0.0152588, 26.213, 90838.5
12012, 0.000820312, 0.0430664, 0.247529, -0.116382, 0.0171247, 0.107641, 9.87605, 0.0152588, 0.0152588, -0.0457764, 26.2064, 90838.2
12022, 0, 0.0430664, 0.263423, -0.116382, 0.0244638, 0.139444, 9.86627, -0.0762939, 0, -0.0305176, 26.2126, 90838.9
12032, 0, 0.0406055, 0.246709, -0.106743, 0.0415885, 0.107641, 9.86871, -0.0152588, 0, -0.0152588, 26.2084, 90838.3
12042, 0.000410156, 0.0426563, 0.246709, -0.117202, 0.0171247, 0.124766, 9.86871, -0.0152588, 0.0305176, 0.0152588, 26.2137, 90838.8
12052, 0.000410156, 0.0410156, 0.260859, -0.106333, 0.0195711, 0.132105, 9.88339, 0, -0.0610352, -0.0152588, 26.2087, 90838.7
12072, 0.000410156, 0.0418359, 0.255425, -0.109717, 0.0415885, 0.14189, 9.88339, -0.0457764, 0.0152588, -0.0305176, 26.2035, 90838.2
12123, 0.00123047, 0.0426563, 0.254604, -0.114741, 0.0440349, 0.129658, 9.86627, 0, 0.0915527, -0.0305176, 26.2054, 90838.2
12132, 0.00164062, 0.0414258, 0.254604, -0.109307, 0.0415885, 0.136998, 9.86382, -0.0610352, 0.0152588, -0.0305176, 26.2102, 90838.7
12142, 0.00287109, 0.0410156, 0.254604, -0.112588, 0.0146783, 0.14189, 9.86871, -0.0305176, 0, 0, 26.2094, 90838.4
12152, 0.00246094, 0.0422461, 0.250811, -0.110127, 0.0195711, 0.119873, 9.87605, 0.0152588, -0.0305176, 0.0305176, 26.2152, 90838.3
12162, 0.00246094, 0.0410156, 0.259629, -0.112998, 0.0220175, 0.117426, 9.86382, -0.0305176, 0.0610352, -0.0305176, 26.2153, 90838.4
12172, 0, 0.0401953, 0.251221, -0.112998, 0.0195711, 0.112534, 9.88095, -0.0610352, 0.0152588, 0.0152588, 26.205, 90838.9
12182, 0.00328125, 0.0401953, 0.257988, -0.110537, 0.0195711, 0.117426, 9.86871, -0.0305176, -0.12207, 0.0305176, 26.2033, 90838.6
12203, 0.00164062, 0.0422461, 0.24999, -0.112588, 0.0171247, 0.134551, 9.88095, 0, -0.0305176, 0, 26.2172, 90838.5
12212, 0.00164062, 0.0422461, 0.26127, -0.110947, 0.0244638, 0.144337, 9.87361, 0, 0.0152588, 0.0152588, 26.2087, 90838.6
12222, 0.00164062, 0.0410156, 0.24835, -0.111357, 0.0391421, 0.129658, 9.86382, 0.0305176, -0.0610352, 0, 26.2106, 90838.5
12232, 0.00205078, 0.0410156, 0.26127, -0.111357, 0.0195711, 0.146783, 9.87116, -0.106812, 0.0152588, 0.0152588, 26.2074, 90838.7
12242, 0.000820312, 0.0414258, 0.245786, -0.110127, 0.0195711, 0.110087, 9.87116, 0, -0.0457764, -0.0152588, 26.2029, 90838.9
12252, 0, 0.0430664, 0.245786, -0.111357, 0.0195711, 0.139444, 9.87116, 0.0152588, -0.0152588, 0, 26.2139, 90838.7
12262, 0, 0.0410156, 0.263013, -0.110127, 0.0269102, 0.124766, 9.86627, -0.0457764, 0.0457764, 0.0762939, 26.2134, 90838.7
12272, 0.00164062, 0.0422461, 0.246709, -0.114741, 0.0415885, 0.119873, 9.9103, 0.0457764, 0, 0.0152588, 26.1994, 90838.3
12292, 0.00328125, 0.0414258, 0.245376, -0.110537, 0.031803, 0.124766, 9.86627, -0.0610352, 0.0457764, 0.0152588, 26.2229, 90838.8
12302, 0.00123047, 0.0418359, 0.245376, -0.115972, 0.031803, 0.110087, 9.88339, 0, -0.0152588, -0.0610352, 26.214, 90838.4
12312, 0.00123047, 0.0401953, 0.263423, -0.109717, 0.031803, 0.139444, 9.8785, 0.0152588, 0.0915527, 0.0152588, 26.2095, 90838.2
12322, -0.000410156, 0.0418359, 0.247529, -0.115562, 0.0293566, 0.112534, 9.87361, -0.0457764, -0.0762939, -0.0610352, 26.2048, 90838.3
12332, -0.000820312, 0.0418359, 0.265474, -0.115562, 0.00733915, 0.124766, 9.89073, -0.0152588, 0.0457764, -0.0305176, 26.2069, 90838.8
12342, 0.000410156, 0.0401953, 0.246196, -0.107153, 0.0391421, 0.119873, 9.86871, -0.0915527, -0.0457764, -0.0152588, 26.2156, 90838.3
12352, 0.00123047, 0.0434766, 0.246196, -0.114331, 0.00978554, 0.134551, 9.87116, -0.0610352, 0.0610352, 0.0305176, 26.2225, 90838.6
12372, 0.000410156, 0.0422461, 0.247119, -0.117202, 0.0195711, 0.112534, 9.87605, 0.0305176, -0.0152588, 0.0152588, 26.2081, 90838.5
12382, 0, 0.0422461, 0.262603, -0.117202, 0.0293566, 0.124766, 9.86137, -0.0762939, 0.0762939, 0.0610352, 26.2146, 90839.2
12392, -0.00164062, 0.0410156, 0.24835, -0.106333, 0.0366958, 0.132105, 9.89318, -0.0152588, 0.0152588, -0.0457764, 26.2126, 90838.9
12402, 0.000820312, 0.0406055, 0.24835, -0.116792, 0.0171247, 0.127212, 9.85893, -0.0457764, 0.0152588, -0.0152588, 26.222, 90838.5
12412, -0.00123047, 0.0397852, 0.260449, -0.107563, 0.031803, 0.134551, 9.8467, -0.0152588, -0.0305176, 0.0305176, 26.2127, 90839.5
12422, -0.00123047, 0.0452197, 0.246196, -0.117612, -0.00733915, 0.122319, 9.88829, -0.0457764, 0.0305176, 0.0305176, 26.2184, 90838.8
12432, -0.000820312, 0.0422461, 0.259219, -0.105923, 0.0366958, 0.124766, 9.87605, 0, -0.0152588, 0.0305176, 26.2049, 90838.8
12442, -0.000410156, 0.0422461, 0.251221, -0.105923, 0.0220175, 0.136998, 9.87116, 0.0305176, 0.0305176, 0.0305176, 26.2097, 90838.8
12462, 0.00123047, 0.0397852, 0.257988, -0.108384, 0.0171247, 0.119873, 9.8785, -0.0457764, -0.0457764, 0.0152588, 26.2134, 90838.3
12472, 0.00123047, 0.0426563, 0.252964, -0.114741, 0.0146783, 0.134551, 9.86137, 0, -0.0152588, 0.0152588, 26.2157, 90839
12482, 0.000410156, 0.0434766, 0.256245, -0.108896, 0.031803, 0.11498, 9.85893, -0.0610352, -0.0152588, 0.0152588, 26.2149, 90838.8
12492, 0.00123047, 0.0434766, 0.254604, -0.108896, 0.0171247, 0.110087, 9.86871, -0.0610352, -0.12207, -0.0152588, 26.2158, 90838.5
12502, -0.000410156, 0.0406055, 0.252144, -0.114331, 0.0342494, 0.119873, 9.84425, -0.0457764, 0.0305176, -0.0305176, 26.2201, 90837.9
12512, 0.00164062, 0.0438867, 0.252144, -0.110537, 0.0171247, 0.117426, 9.87361, -0.0457764, 0.0610352, 0.0457764, 26.2211, 90838.6
12522, 0.00164062, 0.0418359, 0.255425, -0.111357, 0.0293566, 0.127212, 9.89318, 0.0152588, 0.0610352, 0, 26.2118, 90838.5
12542, 0, 0.0434766, 0.259629, -0.110947, 0.0146783, 0.132105, 9.88095, 0, 0.0610352, -0.0152588, 26.2143, 90838.9
12552, 0.000820312, 0.0410156, 0.24958, -0.111357, 0.0293566, 0.122319, 9.88584, -0.0152588, 0.0457764, 0.0457764, 26.217, 90839.1
12562, 0.00246094, 0.0422461, 0.24958, -0.111768, 0.0195711, 0.112534, 9.88584, -0.0762939, -0.0762939, 0.0152588, 26.2218, 90838.4
12572, 0.00328125, 0.0397852, 0.26127, -0.111357, 0.0146783, 0.124766, 9.86382, -0.0915527, 0.0762939, 0.0152588, 26.2235, 90838.7
12582, 0.00328125, 0.0452197, 0.246196, -0.112178, 0.0269102, 0.132105, 9.88095, -0.0152588, -0.0762939, -0.0457764, 26.2229, 90839.1
12592, 0, 0.0452197, 0.260449, -0.112178, 0.0146783, 0.127212, 9.86627, -0.0305176, 0.0610352, 0.0305176, 26.2248, 90839
12602, 0.00246094, 0.0410156, 0.247119, -0.110127, 0.0293566, 0.127212, 9.8467, -0.0610352, -0.0305176, -0.0305176, 26.2143, 90838.7
12612, 0.000410156, 0.0426563, 0.247119, -0.112588, 0.0171247, 0.132105, 9.89807, -0.0305176, -0.0610352, -0.0305176, 26.2104, 90838.4
12632, 0.000820312, 0.0418359, 0.244966, -0.114331, 0.0293566, 0.134551, 9.86627, 0.0152588, -0.0457764, 0.0305176, 26.2269, 90838.8
12642, -0.000410156, 0.0434766, 0.263833, -0.107974, 0.0293566, 0.119873, 9.88829, -0.0762939, 0.137329, 0.0152588, 26.2146, 90838.5
12652, 0.000410156, 0.0434766, 0.243325, -0.107974, 0.0146783, 0.117426, 9.87116, -0.0610352, -0.0152588, 0.0152588, 26.2256, 90838.7
12662, 0.000410156, 0.0434766, 0.263423, -0.113511, 0.00978554, 0.117426, 9.88829, -0.0152588, 0.0610352, 0, 26.2248, 90839
12672, 0.000820312, 0.0430664, 0.263423, -0.108384, 0.00733915, 0.119873, 9.86871, -0.0610352, 0.0457764, 0.0152588, 26.2066, 90838
12682, 0.000820312, 0.0426563, 0.245376, -0.113511, 0.0195711, 0.132105, 9.8785, -0.0305176, -0.0610352, 0.0457764, 26.2278, 90838.2
12692, 0.00123047, 0.0414258, 0.265063, -0.108896, 0.0220175, 0.122319, 9.86627, -0.0305176, 0, -0.0457764, 26.2099, 90838.5
12712, 0.000820312, 0.0438867, 0.262603, -0.115972, 0.0293566, 0.122319, 9.87116, -0.0915527, 0.137329, -0.0305176, 26.2243, 90838.6
12722, -0.00164062, 0.0426563, 0.262603, -0.107563, 0.0366958, 0.132105, 9.85893, -0.0762939, -0.0152588, -0.0152588, 26.2151, 90838.3
12732, -0.00164062, 0.0464502, 0.247529, -0.118535, 0.0244638, 0.136998, 9.87116, -0.0610352, 0.0762939, 0.0457764, 26.2326, 90838.7
12742, 0.000820312, 0.0422461, 0.263423, -0.109307, 0.0171247, 0.117426, 9.88095, -0.0152588, 0, 0.0610352, 26.2207, 90839.2
12752, 0.000410156, 0.0422461, 0.247939, -0.109307, 0.0122319, 0.122319, 9.85159, -0.0610352, -0.0305176, -0.0762939, 26.2222, 90838.7
12762, 0.00205078, 0.0442969, 0.259629, -0.112178, 0.00978554, 0.100302, 9.88095, -0.0152588, 0.106812, 0.0305176, 26.2139, 90839.2
12772, 0.00123047, 0.0426563, 0.259629, -0.107974, 0.0269102, 0.112534, 9.86627, -0.0152588, -0.0457764, 0, 26.215, 90839.1
12782, 0.000820312, 0.0426563, 0.24958, -0.115562, 0.031803, 0.132105, 9.88339, -0.0152588, -0.0915527, 0, 26.2226, 90838.6
12802, 0, 0.0410156, 0.252144, -0.108384, 0.0293566, 0.11498, 9.86871, -0.0915527, -0.0305176, 0.0152588, 26.2071, 90838.8
12812, 0.00369141, 0.0442969, 0.257988, -0.115151, 0.0195711, 0.129658, 9.86382, 0, 0.0762939, 0.0457764, 26.213, 90838.6
12822, 0.00205078, 0.0406055, 0.257988, -0.107974, 0.031803, 0.117426, 9.8785, -0.0305176, -0.0305176, 0.0457764, 26.2238, 90838.9
12832, 0, 0.0434766, 0.252964, -0.114331, 0.0195711, 0.11498, 9.88095, -0.0305176, 0, -0.0152588, 26.2128, 90839.1
12842, 0, 0.0448096, 0.258398, -0.110127, 0.0464813, 0.107641, 9.87361, -0.0152588, 0, -0.0305176, 26.2122, 90838.8
12852, -0.000820312, 0.0430664, 0.255015, -0.114741, 0.00489277, 0.119873, 9.87605, -0.106812, 0.0152588, 0.0305176, 26.2241, 90838.9
12862, 0, 0.0430664, 0.253784, -0.114741, 0.0244638, 0.117426, 9.88829, 0, 0.0762939, -0.0152588, 26.2362, 90838.8
12882, 0.000820312, 0.0406055, 0.253784, -0.112178, 0.0342494, 0.132105, 9.87116, 0, 0.0762939, 0.0457764, 26.2298, 90839
12892, 0.000820312, 0.0406055, 0.252144, -0.110537, 0.0440349, 0.119873, 9.86871, -0.0457764, -0.106812, -0.0305176, 26.2247, 90838.6
12902, 0.00369141, 0.0434766, 0.259219, -0.112588, 0.0342494, 0.122319, 9.87605, 0.0305176, 0.0305176, 0.0152588, 26.2132, 90838.5
12912, 0.00164062, 0.0434766, 0.252144, -0.112588, 0.0440349, 0.132105, 9.85893, -0.0610352, 0.0610352, 0.0610352, 26.227, 90839
12922, 0.00410156, 0.0418359, 0.259629, -0.112178, 0.0342494, 0.117426, 9.88095, 0.0457764, -0.0152588, -0.0152588, 26.2224, 90838.5
12932, 0.000820312, 0.0426563, 0.259629, -0.112178, 0.0195711, 0.11498, 9.87605, -0.0152588, 0.0610352, 0.0457764, 26.2196, 90838.8
12942, 0.000820312, 0.0434766, 0.251221, -0.108896, 0.0171247, 0.129658, 9.87605, -0.0457764, 0.0152588, 0.0152588, 26.2163, 90838.8
12952, 0.000410156, 0.0406055, 0.260449, -0.114331, 0.0195711, 0.124766, 9.85404, -0.106812, 0.0610352, 0.0610352, 26.2135, 90838.7
12972, 0, 0.0418359, 0.26127, -0.112178, 0.0220175, 0.134551, 9.87361, 0, 0.0152588, -0.0305176, 26.2307, 90838.4
12982, 0.00328125, 0.0438867, 0.26127, -0.110537, 0.0171247, 0.124766, 9.87361, -0.0305176, 0.0762939, 0.0305176, 26.2215, 90838.1
12992, -0.00164062, 0.0422461, 0.245786, -0.115151, 0.0293566, 0.117426, 9.86382, -0.0610352, 0.0305176, 0, 26.222, 90838.8
13002, -0.00164062, 0.0406055, 0.264243, -0.110127, 0.0195711, 0.102748, 9.87605, -0.0457764, 0.0762939, -0.0610352, 26.2279, 90839
13012, 0.00287109, 0.0406055, 0.246709, -0.110127, 0.0195711, 0.117426, 9.87116, 0.0152588, -0.0457764, 0, 26.2173, 90838.9
13022, 0.000410156, 0.0430664, 0.262192, -0.113921, 0, 0.11498, 9.88095, 0.0152588, 0, 0.0762939, 26.2249, 90839.4
13032, 0.000410156, 0.0418359, 0.262192, -0.108896, 0.0269102, 0.110087, 9.86871, 0, -0.0762939, -0.0152588, 26.2316, 90838.4
13052, 0.00123047, 0.0410156, 0.265063, -0.108384, 0.0244638, 0.134551, 9.87361, 0, -0.106812, 0.0457764, 26.2302, 90838.4
13062, 0.000820312, 0.0410156, 0.246196, -0.108384, 0.0342494, 0.117426, 9.86137, -0.0457764, -0.106812, -0.0457764, 26.2243, 90838.7
13072, 0.00246094, 0.0468603, 0.261782, -0.116382, 0.0146783, 0.112534, 9.85648, 0.12207, -0.137329, 0.0152588, 26.2303, 90838.8
13082, 0.00246094, 0.0410156, 0.246196, -0.106333, 0.154122, 0.122319, 9.63386, 0.0457764, 1.2207, -0.0305176, 26.2279, 90839.2
13092, 0.00328125, 0.0468603, 0.246196, -0.115151, -0.276441, 0.0366958, 10.4656, -0.167847, -1.57166, -0.0152588, 26.2282, 90839.2
13102, 0.00328125, 0.0422461, 0.265063, -0.106333, 0.247085, 0.112534, 9.52622, 0.396728, 1.31226, -0.0915527, 26.2293, 90838.7
13112, 0, 0.0452197, 0.245376, -0.117202, -0.11498, 0.149229, 9.94211, -0.305176, -1.0376, 0, 26.232, 90838.3
13122, -0.000820312, 0.0452197, 0.262192, -0.117202, 0.156569, 0.156569, 9.75373, 0.0457764, 0.976562, 0.0457764, 26.2396, 90838.3
13142, -0.000820312, 0.04604, 0.24958, -0.113921, 0.205496, 0.220175, 9.56536, 0.12207, 1.5564, 0.0305176, 26.2273, 90838.4
13152, -0.000410156, 0.0414258, 0.262603, -0.107974, -0.0562668, 0.132105, 10.0351, -0.38147, -1.31226, 0.106812, 26.221, 90838.5
13162, -0.000410156, 0.0434766, 0.250811, -0.112178, 0.0758379, 0.105195, 9.86871, 0.152588, 0.793457, 0.106812, 26.2306, 90838.8
13172, 0.000410156, 0.0434766, 0.259629, -0.112178, -0.0269102, 0.132105, 9.75863, -0.12207, -0.0762939, 0.0915527, 26.2206, 90838.3
13182, 0.00451172, 0.0410156, 0.252964, -0.106743, 0.0611596, 0.0905162, 9.82468, -0.137329, 0.396728, -0.0152588, 26.2285, 90838.6
13192, -0.000410156, 0.0422461, 0.252964, -0.115151, -0.149229, 0.0146783, 10.2161, -0.0152588, -1.0376, 0, 26.2237, 90838.5
13202, 0.00205078, 0.0430664, 0.255015, -0.109307, 0.215282, 0.134551, 9.59472, 0.228882, 0.778198, -0.0152588, 26.233, 90838.7
13222, 0.00164062, 0.0430664, 0.253374, -0.115151, 0.0856234, 0.0880698, 9.947, 0, -0.320435, -0.0152588, 26.2379, 90838.5
13232, 0, 0.0414258, 0.256758, -0.110537, -0.0342494, 0.188372, 9.92009, 0.152588, 0.228882, -0.0152588, 26.233, 90838.3
13242, 0.00164062, 0.0472705, 0.256758, -0.111768, 0.129658, 0.210389, 9.68034, -0.0610352, 0.213623, 0.0915527, 26.2246, 90838.5
13252, 0.000820312, 0.0392725, 0.251733, -0.108896, -0.0709451, 0.127212, 10.0424, -0.12207, -0.305176, 0.0610352, 26.2294, 90839.2
13262, 0.000820312, 0.0426563, 0.257578, -0.115562, 0.0562668, 0.139444, 9.81489, 0.0762939, 0.167847, 0.0915527, 26.2367, 90838.9
13272, 0.00246094, 0.0426563, 0.24999, -0.115562, 0.0244638, 0.129658, 9.85159, -0.0305176, 0.0305176, 0.0457764, 26.2346, 90838.5
13282, 0.00164062, 0.0430664, 0.257578, -0.109307, 0.0171247, 0.0831771, 9.88829, -0.0305176, -0.106812, -0.0762939, 26.2291, 90838.6
13292, 0.00123047, 0.0406055, 0.24835, -0.113511, 0.00978554, 0.0758379, 9.88339, 0.0610352, -0.12207, 0, 26.2313, 90838.7
13312, 0.000410156, 0.0426563, 0.259219, -0.110127, 0.0366958, 0.0758379, 9.90052, -0.0457764, -0.12207, -0.0762939, 26.224, 90838.4
13322, 0.00328125, 0.0418359, 0.247119, -0.111357, 0.0244638, 0.11498, 9.89073, 0, 0.0457764, -0.0457764, 26.2262, 90838.8
13332, 0.000410156, 0.0418359, 0.263423, -0.111357, 0.0293566, 0.156569, 9.83446, -0.0762939, 0.0457764, 0.0305176, 26.2324, 90838.8
13342, 0.000820312, 0.0438867, 0.246709, -0.110127, 0.031803, 0.139444, 9.89807, -0.0305176, -0.0152588, 0.0152588, 26.2315, 90838.6
13352, -0.000410156, 0.0452197, 0.246709, -0.113921, 0.0146783, 0.159015, 9.90052, 0.0152588, -0.0305176, 0.0305176, 26.2283, 90838.8
13362, 0.00287109, 0.0406055, 0.263013, -0.109717, 0.0415885, 0.156569, 9.84914, 0.0457764, 0.0457764, 0.0305176, 26.2346, 90838.7
13372, 0.00287109, 0.0434766, 0.243735, -0.115151, 0.0489277, 0.134551, 9.86137, 0, -0.0915527, 0.0152588, 26.2274, 90839.2
13392, 0.00164062, 0.0434766, 0.244556, -0.110127, 0.031803, 0.122319, 9.87605, -0.0457764, 0.0305176, 0.0305176, 26.2283, 90838.6
13402, 0, 0.0448096, 0.244556, -0.114741, 0.0195711, 0.112534, 9.85648, 0.0762939, 0.0762939, 0.0305176, 26.2223, 90839.3
13412, 0.000410156, 0.0392725, 0.264653, -0.108896, 0.0171247, 0.095409, 9.90296, 0.0152588, -0.0457764, -0.0457764, 26.2303, 90838.7
13422, 0.000410156, 0.0430664, 0.244145, -0.114741, 0.0195711, 0.124766, 9.88095, -0.0152588, 0.0610352, -0.0152588, 26.2403, 90838.5
13432, 0.00287109, 0.0430664, 0.262603, -0.114741, 0.0122319, 0.136998, 9.87361, -0.0305176, 0.0152588, -0.0915527, 26.2307, 90838.8
13442, -0.00123047, 0.0430664, 0.245786, -0.109307, 0.0366958, 0.127212, 9.87361, 0, 0, -0.0305176, 26.2439, 90838.5
13452, 0.00164062, 0.0448096, 0.245786, -0.115562, 0.0293566, 0.144337, 9.88584, 0, 0, 0, 26.2372, 90838.6
13462, 0.000820312, 0.0392725, 0.262192, -0.105923, 0.0391421, 0.14189, 9.85648, 0.0152588, 0.12207, -0.0305176, 26.2263, 90839.2
13482, 0.00205078, 0.0430664, 0.26127, -0.112998, 0.00978554, 0.0929626, 9.81979, -0.0152588, -0.137329, 0.0457764, 26.2372, 90839.4
13492, 0.00164062, 0.0418359, 0.24835, -0.107974, 0.0464813, 0.119873, 9.83202, -0.0610352, 0.0152588, 0, 26.2407, 90838.8
13502, 0, 0.0422461, 0.257578, -0.114331, 0.0440349, 0.110087, 9.92253, -0.0305176, 0.183105, 0, 26.2444, 90838.4
13512, 0.00287109, 0.0410156, 0.257578, -0.109307, 0.00978554, 0.117426, 9.86137, 0.0152588, -0.228882, 0.0152588, 26.2455, 90838.6
13522, 0.00287109, 0.04604, 0.24876, -0.114331, 0.0391421, 0.132105, 9.8418, -0.0152588, 0.320435, 0.0305176, 26.2208, 90838.6
13532, 0.00164062, 0.0406055, 0.258398, -0.107563, 0.0366958, 0.124766, 9.87361, 0, -0.12207, 0.0152588, 26.239, 90839.1
13542, 0.00369141, 0.0406055, 0.251221, -0.107563, 0.0220175, 0.119873, 9.89807, 0.0610352, 0.12207, 0.106812, 26.2285, 90838.6
13562, 0.00328125, 0.0406055, 0.257168, -0.108896, 0.0538205, 0.127212, 9.89562, -0.0152588, 0.0762939, -0.0152588, 26.2227, 90838.8
13572, 0.00328125, 0.0456299, 0.253374, -0.117202, 0.031803, 0.122319, 9.86137, 0.0305176, -0.137329, 0.0610352, 26.2378, 90838.9
13582, 0.00328125, 0.0406055, 0.253784, -0.108896, 0.031803, 0.119873, 9.8785, -0.0610352, 0.0152588, 0.0915527, 26.2368, 90838.1
13592, 0, 0.0406055, 0.254604, -0.108896, 0.0220175, 0.124766, 9.86871, 0.0305176, 0.0152588, 0.0152588, 26.239, 90839.3
13602, 0.00164062, 0.0434766, 0.252144, -0.113921, 0.0342494, 0.119873, 9.89073, -0.0152588, 0.0305176, 0.0457764, 26.2442, 90838.2
13612, 0.00123047, 0.0406055, 0.252144, -0.108896, 0.0122319, 0.105195, 9.85893, 0.0457764, -0.0152588, 0, 26.2353, 90838.8
13622, 0.00205078, 0.0430664, 0.258809, -0.115151, 0.0195711, 0.119873, 9.88339, 0, -0.0610352, -0.0152588, 26.2271, 90838.9
13632, 0.00205078, 0.0406055, 0.24999, -0.109307, 0.0391421, 0.124766, 9.89073, -0.0762939, -0.0305176, -0.0152588, 26.2411, 90838.7
13652, 0.000820312, 0.0422461, 0.247119, -0.112178, 0.031803, 0.112534, 9.86137, -0.106812, 0.106812, 0.0762939, 26.2376, 90838.6
13662, 0.00328125, 0.0426563, 0.247119, -0.110127, 0.0513741, 0.110087, 9.8785, 0.0610352, 0.0457764, 0.0305176, 26.2365, 90838.4
13672, 0.00205078, 0.0434766, 0.262603, -0.112588, 0.0342494, 0.11498, 9.87361, -0.0305176, 0, 0.0305176, 26.2343, 90838.2
13682, 0.00205078, 0.0438867, 0.24876, -0.109717, 0.0220175, 0.134551, 9.87361, 0, 0.137329, 0.0152588, 26.2422, 90838.2
13692, 0.000820312, 0.0438867, 0.259219, -0.109717, 0.0171247, 0.11498, 9.89318, -0.0152588, 0.0457764, 0.0305176, 26.2453, 90838.8
13702, -0.00164062, 0.0422461, 0.243325, -0.110537, 0.00733915, 0.136998, 9.8785, -0.0152588, -0.0457764, 0.0305176, 26.2375, 90838
13712, 0.00164062, 0.0442969, 0.260039, -0.112588, 0.0220175, 0.129658, 9.86871, -0.106812, 0.0610352, 0.0305176, 26.2367, 90838
13722, 0.00164062, 0.0410156, 0.260039, -0.108896, 0.0489277, 0.132105, 9.87605, -0.0305176, 0.0305176, 0, 26.2372, 90838.3
13742, 0.00123047, 0.0406055, 0.266807, -0.110537, 0.031803, 0.0929626, 9.86627, 0.0152588, 0.0762939, -0.0152588, 26.2374, 90838.5
13752, 0.00164062, 0.0406055, 0.243325, -0.110537, 0.0342494, 0.122319, 9.8785, -0.0305176, 0.0457764, 0, 26.2348, 90838.9
13762, 0.00328125, 0.0426563, 0.264653, -0.115151, 0.0220175, 0.112534, 9.82712, -0.0305176, 0.0762939, 0, 26.2458, 90838.4
13772, 0, 0.0414258, 0.264653, -0.108896, 0.0758379, 0.095409, 9.92498, 0.0152588, -0.0915527, 0.0305176, 26.2408, 90839.1
13782, 0.00287109, 0.0410156, 0.246709, -0.114741, -0.0415885, 0.132105, 9.80266, -0.0305176, 0.274658, -0.0305176, 26.2359, 90838.2
13792, 0.00287109, 0.0410156, 0.260039, -0.110947, 0.0709451, 0.107641, 9.90786, -0.0305176, -0.198364, 0.0152588, 26.2253, 90839.1
13802, 0.00164062, 0.0410156, 0.245376, -0.110947, 0.00244638, 0.139444, 9.88095, 0, 0.198364, 0.0152588, 26.2316, 90838.2
13822, 0.000410156, 0.0422461, 0.261782, -0.108384, 0.0195711, 0.119873, 9.86382, -0.0610352, 0.274658, 0.0152588, 26.2379, 90838.8
13832, 0.00164062, 0.0448096, 0.245786, -0.114331, 0.0293566, 0.119873, 9.88829, -0.0152588, -0.12207, 0.0457764, 26.2467, 90838.8
13842, 0.00164062, 0.0401953, 0.263013, -0.109307, 0.00733915, 0.11498, 9.84914, 0.0152588, 0.0305176, 0.0152588, 26.2499, 90838.5
13852, 0, 0.0401953, 0.247939, -0.109307, 0.0415885, 0.0929626, 9.85893, -0.0152588, -0.0610352, 0.0457764, 26.2505, 90838.9
13862, 0.00164062, 0.0448096, 0.26127, -0.115972, 0.0293566, 0.110087, 9.89318, 0, -0.0152588, 0.0610352, 26.2492, 90838.8
13872, 0.00246094, 0.0410156, 0.26127, -0.106743, -0.00244638, 0.119873, 9.8467, -0.0305176, 0.0610352, -0.0152588, 26.2349, 90839.2
13882, 0.000410156, 0.0434766, 0.24958, -0.113921, 0.0195711, 0.146783, 9.86137, 0, -0.0305176, 0.0152588, 26.2379, 90838.3
13892, 0.000410156, 0.0426563, 0.259629, -0.107153, 0.0269102, 0.122319, 9.88584, -0.0152588, 0.137329, 0.0305176, 26.2496, 90838.7
13912, 0.00246094, 0.0452197, 0.257988, -0.115562, 0.0342494, 0.119873, 9.86137, -0.0610352, 0.12207, 0.0152588, 26.2404, 90838.3
13922, 0.000820312, 0.0410156, 0.250811, -0.105923, 0.0195711, 0.102748, 9.87605, -0.0762939, -0.0457764, -0.0457764, 26.2461, 90837.9
13932, 0.00205078, 0.0414258, 0.250811, -0.114741, 0.0269102, 0.119873, 9.88339, 0.0152588, 0.0152588, 0, 26.2436, 90838.6
13942, -0.00123047, 0.0430664, 0.255425, -0.108896, 0.0464813, 0.100302, 9.84914, 0.0457764, -0.0305176, 0.0305176, 26.2477, 90838.7
13952, -0.00123047, 0.0430664, 0.255425, -0.114741, 0.0269102, 0.105195, 9.88339, -0.0457764, 0.12207, 0.0152588, 26.237, 90838.2
13962, 0.00287109, 0.0452197, 0.251733, -0.114741, 0.0269102, 0.129658, 9.88829, -0.0457764, -0.106812, 0, 26.2479, 90838.9
13972, 0.00205078, 0.0401953, 0.255425, -0.110127, 0.0269102, 0.14189, 9.8467, -0.0610352, 0.0457764, 0, 26.2481, 90838.8
13992, 0.00246094, 0.0401953, 0.253374, -0.109717, 0.00978554, 0.129658, 9.86871, -0.0457764, 0.0457764, -0.0457764, 26.2389, 90838.3
14002, 0.00246094, 0.0430664, 0.257988, -0.111357, 0, 0.132105, 9.87605, -0.0610352, 0.0610352, 0.0305176, 26.2353, 90838.1
14012, 0.00123047, 0.0430664, 0.24835, -0.111357, 0.0220175, 0.127212, 9.89318, -0.0457764, 0.0152588, 0.0305176, 26.2506, 90837.9
14022, 0.000410156, 0.0410156, 0.26127, -0.109717, 0.0538205, 0.105195, 9.88095, -0.106812, -0.0152588, 0.0915527, 26.2356, 90838.8
14032, 0.00328125, 0.0430664, 0.26127, -0.111768, 0.0269102, 0.105195, 9.86627, 0, 0.0305176, 0.0152588, 26.2496, 90837.9
14042, 0.000410156, 0.0414258, 0.24835, -0.110947, 0.0391421, 0.0978554, 9.88095, -0.0457764, 0.0457764, 0.0152588, 26.2606, 90839.2
14052, 0.000410156, 0.0430664, 0.260859, -0.113921, 0.0195711, 0.100302, 9.88339, 0, -0.0457764, 0.0305176, 26.2322, 90838.2
14062, 0.00287109, 0.0430664, 0.24958, -0.113921, 0.0244638, 0.110087, 9.87116, 0.0305176, 0.0610352, -0.0305176, 26.2491, 90838.5
14082, 0.000410156, 0.0426563, 0.26127, -0.110947, 0.0220175, 0.14189, 9.88339, 0.0152588, 0.0152588, -0.0457764, 26.2508, 90838.8
14092, 0.00123047, 0.0434766, 0.242915, -0.113921, 0.0244638, 0.14189, 9.85648, -0.0610352, 0.0457764, -0.0457764, 26.2454, 90838.1
14102, 0.00123047, 0.0422461, 0.262603, -0.108896, 0.00489277, 0.134551, 9.88095, 0.0305176, -0.12207, 0.0610352, 26.2441, 90838.6
14112, 0.00123047, 0.0422461, 0.244556, -0.108896, 0.0391421, 0.129658, 9.86627, -0.0305176, 0.0610352, 0.0152588, 26.244, 90838.4
14122, 0.00246094, 0.0384521, 0.264243, -0.114741, 0.0366958, 0.112534, 9.87361, -0.0915527, 0.0152588, 0.0610352, 26.2393, 90838.3
14132, 0.000820312, 0.0397852, 0.244145, -0.109717, 0.0366958, 0.110087, 9.87116, 0, 0.0305176, 0.0457764, 26.2458, 90838.8
14142, 0.00328125, 0.0452197, 0.244145, -0.114741, 0.0195711, 0.105195, 9.88829, 0.0152588, -0.0305176, -0.0152588, 26.2335, 90838.7
14162, 0, 0.0430664, 0.243735, -0.115562, 0.0464813, 0.119873, 9.85893, -0.0457764, 0.0305176, 0, 26.2468, 90838.3
14172, 0.00205078, 0.0414258, 0.262603, -0.115562, 0.031803, 0.127212, 9.86627, -0.0457764, -0.0610352, -0.0762939, 26.2496, 90838.7
14182, 0.00164062, 0.0397852, 0.244966, -0.106743, 0.0146783, 0.117426, 9.88829, 0.0305176, -0.0152588, 0, 26.2361, 90838.5
14192, 0.00287109, 0.0442969, 0.244966, -0.111768, 0.0293566, 0.151676, 9.87116, -0.0305176, -0.0762939, -0.0610352, 26.2451, 90838.8
14202, -0.000410156, 0.0414258, 0.262603, -0.108896, 0.0171247, 0.139444, 9.86871, -0.0305176, 0.0762939, -0.0152588, 26.2431, 90839.1
14212, -0.000410156, 0.0452197, 0.245376, -0.114741, 0.0293566, 0.14189, 9.86382, -0.0152588, -0.0152588, 0.0152588, 26.2524, 90838.5
14222, 0.00410156, 0.0452197, 0.261782, -0.114741, 0.0195711, 0.132105, 9.86627, 0, 0.0610352, 0.0305176, 26.2476, 90838.6
14232, 0.00287109, 0.0401953, 0.247939, -0.107153, 0.0366958, 0.129658, 9.8785, 0, 0, 0.0152588, 26.2472, 90838.8
14252, 0.000410156, 0.0426563, 0.258809, -0.107153, 0.0122319, 0.122319, 9.86137, -0.0915527, 0.0152588, 0, 26.2454, 90838.2
14262, 0.000410156, 0.0434766, 0.2504, -0.115151, 0.0440349, 0.107641, 9.87605, 0, 0.0152588, 0.0457764, 26.2578, 90838.4
14272, -0.000820312, 0.0434766, 0.257168, -0.115151, 0.0269102, 0.124766, 9.86137, 0.0305176, 0.0457764, 0, 26.2457, 90838.1
14282, 0.00123047, 0.0418359, 0.251733, -0.107153, 0.0293566, 0.127212, 9.86871, 0.0305176, 0.12207, -0.0152588, 26.2404, 90838.3
14292, 0.00287109, 0.0434766, 0.251733, -0.115972, 0.0342494, 0.129658, 9.86871, 0.0152588, -0.0610352, -0.0152588, 26.2396, 90838.9
14302, 0.00246094, 0.0414258, 0.255015, -0.109307, 0.0293566, 0.119873, 9.87116, -0.0610352, 0.0152588, 0.0610352, 26.2386, 90837.9
14312, 0.00246094, 0.0434766, 0.254604, -0.116792, 0.0293566, 0.134551, 9.86137, -0.106812, 0.0610352, -0.0457764, 26.2413, 90838.3
14332, 0.00205078, 0.0422461, 0.254194, -0.107563, 0.0293566, 0.124766, 9.85159, -0.0305176, 0.0305176, -0.0152588, 26.2423, 90838.1
14342, 0.00205078, 0.0438867, 0.24917, -0.113921, 0.0220175, 0.136998, 9.89073, -0.0457764, -0.0152588, 0, 26.239, 90838
14352, 0.00164062, 0.0414258, 0.24917, -0.110537, 0.0464813, 0.119873, 9.88095, -0.0915527, 0.0305176, 0.0305176, 26.2425, 90838.3
14362, -0.00287109, 0.0442969, 0.257988, -0.113511, 0.0171247, 0.11498, 9.86871, -0.0457764, 0.0152588, -0.0457764, 26.2456, 90838.3
14372, -0.00287109, 0.0442969, 0.247529, -0.109307, 0.0146783, 0.129658, 9.88095, -0.106812, 0.0457764, 0.0152588, 26.2519, 90837.8
14382, -0.00164062, 0.0401953, 0.260039, -0.109307, 0.0293566, 0.105195, 9.88339, -0.0305176, 0.0152588, 0.0152588, 26.2553, 90838.1
14392, 0, 0.0430664, 0.24999, -0.111768, 0.0220175, 0.124766, 9.86627, -0.0610352, 0.0305176, 0.0610352, 26.2461, 90837.7
14402, 0, 0.0430664, 0.24999, -0.110947, 0.0293566, 0.117426, 9.86382, -0.0457764, 0.0152588, 0.0305176, 26.24, 90839.2
14422, 0.00123047, 0.0434766, 0.247939, -0.109307, 0.0244638, 0.127212, 9.85893, -0.0457764, 0, 0, 26.2462, 90838.3
14432, 0.00164062, 0.0434766, 0.263013, -0.109307, 0.0244638, 0.129658, 9.86871, -0.0610352, 0.0152588, 0.0152588, 26.2509, 90838.1
14442, 0.000410156, 0.0422461, 0.247529, -0.110537, 0.0146783, 0.129658, 9.87361, -0.0305176, 0.0610352, 0.0610352, 26.2602, 90838.3
14452, 0.00123047, 0.0406055, 0.247529, -0.112588, 0.0195711, 0.124766, 9.88339, 0.0457764, 0, 0.0457764, 26.2545, 90838.6
14462, 0.000820312, 0.0401953, 0.264243, -0.109717, 0.0220175, 0.11498, 9.86627, 0.0610352, 0.0305176, -0.0152588, 26.2532, 90838.5
14472, 0.000820312, 0.0426563, 0.243325, -0.111357, 0.0342494, 0.117426, 9.87361, 0.0152588, 0, 0.0457764, 26.2467, 90837.8
14482, 0.000410156, 0.0426563, 0.264243, -0.111357, 0.0220175, 0.134551, 9.88584, -0.0610352, 0, 0, 26.2485, 90838.3
14502, 0.00164062, 0.0422461, 0.247529, -0.113921, 0.0293566, 0.132105, 9.87116, -0.0457764, 0.0457764, -0.0152588, 26.2491, 90838.4
14512, 0.000410156, 0.0418359, 0.266294, -0.108896, 0.0269102, 0.134551, 9.88339, -0.0305176, 0.0762939, 0, 26.2606, 90838.6
14522, 0.000410156, 0.0414258, 0.244556, -0.114331, 0.0342494, 0.112534, 9.88095, 0.0610352, -0.0152588, -0.0305176, 26.2587, 90838.3
14532, 0, 0.0414258, 0.259629, -0.114331, 0.00978554, 0.110087, 9.85159, -0.0152588, 0.0610352, 0.0305176, 26.2409, 90838.4
14542, 0.000820312, 0.0414258, 0.245786, -0.106743, 0.0146783, 0.105195, 9.87605, 0.0457764, -0.0305176, 0.0305176, 26.2515, 90838.7
14552, 0, 0.0434766, 0.262192, -0.113921, 0.0195711, 0.127212, 9.87116, -0.0152588, 0.0305176, -0.0305176, 26.26, 90838.2
14562, 0.000820312, 0.0414258, 0.262192, -0.110947, 0.0244638, 0.144337, 9.86382, -0.0152588, 0, 0, 26.2434, 90837.9
14572, 0.00287109, 0.0422461, 0.246196, -0.114741, 0.0366958, 0.127212, 9.88095, 0.0305176, 0.106812, 0.0305176, 26.2517, 90838.3
14592, 0.00164062, 0.0406055, 0.246709, -0.109717, 0.0269102, 0.134551, 9.8785, 0.0152588, -0.0610352, 0.0457764, 26.2578, 90838.9
14602, 0.00328125, 0.0438867, 0.260449, -0.114741, 0.00978554, 0.124766, 9.85404, 0.0305176, 0.0152588, 0.0305176, 26.2575, 90838.2
14612, -0.00123047, 0.0410156, 0.260449, -0.107974, 0.0195711, 0.107641, 9.86627, -0.0152588, 0.0457764, -0.0152588, 26.2549, 90838.1
14622, -0.000410156, 0.0438867, 0.2504, -0.115562, 0.0269102, 0.107641, 9.86871, -0.0305176, -0.0762939, 0.0305176, 26.2495, 90838.3
14632, -0.000410156, 0.0438867, 0.259629, -0.107563, 0.0220175, 0.119873, 9.87605, 0.0762939, 0.0305176, 0, 26.2424, 90838
14642, 0.000820312, 0.0422461, 0.252964, -0.107563, 0.0440349, 0.107641, 9.8467, 0.0305176, -0.0305176, 0.0305176, 26.2544, 90838.4
14652, 0.00410156, 0.0452197, 0.257578, -0.116792, 0.0440349, 0.117426, 9.88584, -0.106812, 0.0305176, 0.0610352, 26.2665, 90838.5
14672, 0.00287109, 0.0422461, 0.254194, -0.112588, 0.031803, 0.107641, 9.8785, 0.0457764, -0.0610352, 0.0305176, 26.2474, 90837.8
14682, 0.00287109, 0.0392725, 0.251733, -0.107153, 0.0244638, 0.132105, 9.86382, 0, 0.0152588, -0.0305176, 26.2438, 90838.3
14692, 0.00164062, 0.0392725, 0.256245, -0.107153, 0.0293566, 0.119873, 9.8785, -0.0762939, 0.0762939, -0.0610352, 26.2631, 90838.3
14702, 0.000410156, 0.0418359, 0.253784, -0.112998, 0.0342494, 0.112534, 9.86627, -0.0305176, -0.152588, 0.0305176, 26.2618, 90837.8
14712, 0.00287109, 0.0410156, 0.253784, -0.109307, 0.0269102, 0.136998, 9.87605, -0.0305176, 0.0152588, 0.0610352, 26.2547, 90838
14722, -0.000410156, 0.0438867, 0.256758, -0.114331, 0.0220175, 0.122319, 9.88095, 0, -0.0152588, -0.0152588, 26.2555, 90838.3
14732, 0.00123047, 0.0418359, 0.24958, -0.110947, 0.0220175, 0.129658, 9.89073, 0, -0.106812, 0.0457764, 26.252, 90838.3
14742, 0.00123047, 0.0418359, 0.258809, -0.110947, 0.0366958, 0.127212, 9.87361, -0.0762939, -0.0610352, -0.0152588, 26.2505, 90838.9
14762, 0.00205078, 0.0418359, 0.260039, -0.111357, 0.0244638, 0.105195, 9.87361, -0.0762939, 0.0305176, 0.0152588, 26.2584, 90838.5
14772, 0.00287109, 0.0426563, 0.260039, -0.112998, 0.0342494, 0.122319, 9.85404, -0.0610352, 0.0610352, 0, 26.2572, 90838
14782, 0.000820312, 0.0422461, 0.247939, -0.111357, 0.0146783, 0.122319, 9.87361, -0.0762939, 0.0305176, 0.0152588, 26.2635, 90838.3
14792, 0.000820312, 0.0422461, 0.264243, -0.111357, 0.0293566, 0.117426, 9.87605, -0.0457764, 0.0152588, -0.0152588, 26.2635, 90837.7
14802, 0, 0.0430664, 0.247119, -0.112588, 0.0146783, 0.119873, 9.88339, -0.0457764, -0.0457764, 0, 26.2509, 90838.6
14812, 0.00164062, 0.0418359, 0.260859, -0.112998, 0.0195711, 0.134551, 9.86871, -0.0762939, 0.106812, -0.0610352, 26.2508, 90838.1
14822, -0.000820312, 0.0434766, 0.260859, -0.111768, 0.031803, 0.154122, 9.85648, -0.0305176, -0.0152588, 0, 26.2578, 90838
14842, 0.000410156, 0.0430664, 0.266294, -0.109717, 0.0269102, 0.124766, 9.8785, -0.0762939, 0, -0.0305176, 26.2542, 90838.5
14852, 0.000410156, 0.0426563, 0.246196, -0.109717, 0.00733915, 0.124766, 9.88584, -0.0457764, -0.0152588, 0.0457764, 26.2536, 90838.3
14862, 0.00164062, 0.0414258, 0.263013, -0.114741, 0.0366958, 0.11498, 9.87361, -0.0305176, 0.0152588, 0, 26.2578, 90838
14872, 0.00123047, 0.0418359, 0.263013, -0.110127, 0.00978554, 0.134551, 9.85404, 0.0152588, -0.137329, -0.0305176, 26.2604, 90838
14882, -0.000820312, 0.0406055, 0.246709, -0.115972, 0.0244638, 0.119873, 9.8785, -0.0610352, 0.0915527, 0.0762939, 26.2583, 90838.4
14892, -0.000820312, 0.0410156, 0.264653, -0.107153, 0.031803, 0.11498, 9.88829, -0.0762939, -0.0152588, 0.0152588, 26.2601, 90837.4
14902, 0.00205078, 0.0410156, 0.244145, -0.107153, 0.00978554, 0.124766, 9.89073, 0.0610352, -0.0152588, 0, 26.2526, 90838.8
14912, 0.00164062, 0.0410156, 0.265884, -0.116382, 0.0464813, 0.119873, 9.85404, -0.0152588, 0.0152588, 0.0152588, 26.2644, 90838.2
14932, 0.00164062, 0.0448096, 0.244966, -0.115972, 0.0244638, 0.119873, 9.86382, -0.0305176, 0.0152588, 0, 26.2649, 90838.1
14942, 0.000410156, 0.0401953, 0.265474, -0.106743, 0.0244638, 0.127212, 9.85893, -0.0305176, -0.0152588, -0.0305176, 26.2603, 90837.9
14952, 0.000410156, 0.0401953, 0.247939, -0.106743, 0.0122319, 0.107641, 9.87605, 0, 0.0610352, 0.0152588, 26.2679, 90838.5
14962, -0.000410156, 0.0438867, 0.258398, -0.114741, 0.031803, 0.107641, 9.87361, -0.0457764, -0.0457764, 0.0152588, 26.2602, 90838.2
14972, 0.000410156, 0.0410156, 0.258398, -0.107974, 0.0269102, 0.129658, 9.87605, -0.0305176, -0.0610352, 0.0152588, 26.269, 90838.5
14982, 0.00205078, 0.0397852, 0.247529, -0.113921, 0.0415885, 0.132105, 9.8785, -0.0305176, 0, -0.0152588, 26.2603, 90838.3
14992, 0.000820312, 0.0418359, 0.257168, -0.105513, 0.031803, 0.107641, 9.86627, -0.0152588, -0.12207, -0.0152588, 26.2621, 90838.5
15012, 0.00205078, 0.0448096, 0.257168, -0.115151, 0.031803, 0.122319, 9.88095, -0.0305176, -0.0610352, -0.0457764, 26.2562, 90838.8
15022, 0.000410156, 0.0397852, 0.251221, -0.109307, 0.0269102, 0.134551, 9.8785, -0.0152588, 0.0305176, -0.0915527, 26.2569, 90838.6
15032, 0.00246094, 0.0430664, 0.251221, -0.114741, 0.0415885, 0.127212, 9.86137, 0.0152588, 0.0457764, -0.0305176, 26.249, 90838.1
15042, 0.000820312, 0.0434766, 0.256758, -0.108384, 0.0220175, 0.122319, 9.88339, 0.0305176, 0.0762939, -0.0152588, 26.2594, 90838.6
15052, 0.000820312, 0.0434766, 0.254194, -0.115151, 0.0220175, 0.144337, 9.87361, -0.0152588, 0.106812, 0.0305176, 26.2512, 90837.9
15062, 0, 0.0430664, 0.255835, -0.115151, 0.0342494, 0.127212, 9.8785, -0.0152588, 0.0152588, 0.0610352, 26.2694, 90838.2
15072, 0.000410156, 0.0397852, 0.256758, -0.110127, 0.0171247, 0.124766, 9.89807, 0, 0.0152588, 0.0152588, 26.2608, 90838
15082, 0.00205078, 0.0442969, 0.256758, -0.113921, 0.0587132, 0.107641, 9.84914, -0.0762939, 0.0152588, 0, 26.271, 90838.1
15102, 0.00287109, 0.0430664, 0.260859, -0.111357, 0.0415885, 0.127212, 9.87605, -0.0762939, 0.0610352, 0.0610352, 26.2534, 90838.1
15112, -0.000410156, 0.0430664, 0.24917, -0.111357, 0.0366958, 0.112534, 9.8785, 0.0457764, -0.106812, -0.0152588, 26.2633, 90838.2
15122, 0.00123047, 0.0434766, 0.258809, -0.110127, 0.0244638, 0.119873, 9.85159, 0, 0.0457764, -0.0152588, 26.2734, 90838.3
15132, 0.000410156, 0.0442969, 0.258809, -0.113511, 0.0195711, 0.129658, 9.86627, 0.0152588, 0.0305176, 0.0305176, 26.2536, 90837.8
15142, 0.00205078, 0.0434766, 0.247119, -0.107153, 0.0220175, 0.136998, 9.88829, -0.0610352, 0.0915527, -0.0152588, 26.2705, 90838.3
15152, 0.00328125, 0.0414258, 0.263833, -0.112588, 0.0342494, 0.107641, 9.86382, -0.0762939, 0.0305176, -0.0305176, 26.2605, 90838
15162, 0.00328125, 0.0414258, 0.247529, -0.112588, 0.00978554, 0.144337, 9.85893, 0.0152588, -0.0305176, 0, 26.2506, 90838.4
15172, 0.000820312, 0.0406055, 0.263013, -0.111768, 0.0415885, 0.119873, 9.8785, 0, 0.0457764, 0, 26.2576, 90838.5
15192, 0.00123047, 0.0442969, 0.247529, -0.113511, 0.0220175, 0.112534, 9.87361, -0.0305176, 0.0305176, 0.0610352, 26.2523, 90838.3
15202, 0.000820312, 0.0434766, 0.264653, -0.110127, 0.0366958, 0.105195, 9.86871, -0.0762939, -0.0305176, -0.0457764, 26.2505, 90838.2
15212, 0.000820312, 0.0434766, 0.246709, -0.110127, 0.0171247, 0.134551, 9.8785, -0.0610352, -0.0152588, -0.0762939, 26.2617, 90838.1
15222, 0.00164062, 0.0418359, 0.264243, -0.115151, 0.0366958, 0.119873, 9.85404, 0.0305176, 0.0152588, 0.0457764, 26.2502, 90838.1
15232, 0.000820312, 0.0401953, 0.244966, -0.108896, 0.0171247, 0.127212, 9.88095, -0.0152588, -0.0610352, 0.0305176, 26.2463, 90837.9
15242, 0, 0.0430664, 0.244966, -0.112998, 0.0195711, 0.117426, 9.87116, -0.0152588, -0.0152588, 0.0152588, 26.2662, 90838.6
