timestamp, current1, current2, current3, current4, accel x, accel y, accel z, degrees x, degrees y, degrees z, baro temp, baro pressure
4463, 0.00205078, 0.0384521, 0.242915, -0.112178, 0.0293566, 0.11498, 9.86871, -0.0457764, 0.0457764, 0.0305176, 26.2614, 90839.8
4473, 0.00205078, 0.0430664, 0.258398, -0.112178, 0.0342494, 0.117426, 9.86137, -0.0152588, -0.0152588, 0.0457764, 26.2657, 90840
4483, 0.000410156, 0.0430664, 0.258398, -0.107974, 0.0269102, 0.132105, 9.85648, -0.0305176, 0, 0.0762939, 26.258, 90840
4493, -0.00123047, 0.038042, 0.242095, -0.114741, 0.0464813, 0.124766, 9.8785, 0.0457764, -0.0152588, 0.0305176, 26.2595, 90840.2
4503, 0.000410156, 0.0426563, 0.257168, -0.107974, 0.0440349, 0.124766, 9.86627, 0.0457764, 0.0305176, 0, 26.2433, 90840.6
4513, 0.000410156, 0.0368115, 0.242915, -0.114741, 0.0293566, 0.119873, 9.88339, -0.0152588, 0.0152588, 0.0457764, 26.2551, 90839.3
4523, 0.000410156, 0.0397852, 0.257988, -0.114741, 0.0513741, 0.117426, 9.86871, 0.0152588, -0.0610352, 0.0152588, 26.2578, 90840.4
4533, -0.000410156, 0.0410156, 0.257988, -0.110127, 0.0342494, 0.105195, 9.8467, 0.0457764, 0.0152588, 0.106812, 26.2701, 90840
4553, 0.00246094, 0.0422461, 0.257168, -0.110127, 0.0391421, 0.122319, 9.86382, -0.0152588, 0, 0.0305176, 26.2609, 90839.9
4563, 0.00123047, 0.0406055, 0.246196, -0.111768, 0.0293566, 0.132105, 9.8467, -0.0152588, -0.0915527, 0, 26.2643, 90840.2
4573, 0.00123047, 0.0418359, 0.252964, -0.111768, 0.0440349, 0.124766, 9.86627, -0.0457764, 0.0457764, 0, 26.2575, 90840.1
4583, 0.00287109, 0.0430664, 0.2504, -0.110127, 0.0391421, 0.119873, 9.87605, -0.0610352, 0.0152588, 0.0610352, 26.2569, 90839.5
4593, 0.00205078, 0.0430664, 0.2504, -0.111357, 0.0538205, 0.134551, 9.8418, -0.0152588, -0.0152588, 0.0610352, 26.2528, 90840.1
4603, 0.000820312, 0.0397852, 0.253374, -0.113511, 0.00978554, 0.136998, 9.87605, 0.0610352, 0.0305176, -0.0152588, 26.2722, 90840.1
4613, 0.000410156, 0.0376318, 0.253784, -0.110127, 0.0391421, 0.112534, 9.87361, -0.0457764, 0.0457764, 0, 26.2603, 90840.1
4633, 0.00123047, 0.0422461, 0.255015, -0.114331, 0.0195711, 0.122319, 9.88584, 0.0152588, -0.106812, 0.0610352, 26.2795, 90840.2
4643, 0.00205078, 0.0422461, 0.255015, -0.106333, 0.0342494, 0.122319, 9.86627, -0.0305176, 0, -0.0152588, 26.2751, 90840.1
4653, 0.000820312, 0.0397852, 0.24835, -0.112998, 0.0195711, 0.129658, 9.85893, -0.0457764, 0.0762939, 0.0152588, 26.2586, 90840.3
4663, 0.00123047, 0.0422461, 0.255425, -0.107563, 0.0440349, 0.132105, 9.86871, 0, -0.106812, -0.0152588, 26.2611, 90839.8
4673, 0.00287109, 0.0410156, 0.245786, -0.112588, 0.0538205, 0.122319, 9.88339, -0.0457764, -0.0152588, 0.0152588, 26.2579, 90840.5
4683, 0.00287109, 0.0384521, 0.257168, -0.112588, 0.0195711, 0.134551, 9.86627, -0.0305176, -0.0762939, 0, 26.2638, 90840.6
4693, 0.000410156, 0.0384521, 0.257168, -0.110127, 0.0366958, 0.132105, 9.85404, -0.0610352, 0.0305176, 0.0305176, 26.2671, 90840
4703, 0.00410156, 0.0392725, 0.246709, -0.114331, 0.0269102, 0.122319, 9.87361, -0.0457764, 0, 0.0457764, 26.2538, 90839.8
4723, 0.000820312, 0.0372217, 0.244556, -0.117612, 0.0366958, 0.122319, 9.85893, -0.0152588, 0.0610352, 0.0152588, 26.2596, 90839.8
4733, 0.000820312, 0.0392725, 0.257988, -0.117612, 0.0562668, 0.117426, 9.86382, -0.0305176, -0.0610352, 0.0610352, 26.2638, 90840
4743, 0.000820312, 0.0401953, 0.257988, -0.107153, 0.0391421, 0.124766, 9.87605, 0, -0.0457764, 0.0457764, 26.2621, 90840.5
4753, 0.000410156, 0.0401953, 0.242915, -0.115972, 0.0464813, 0.124766, 9.86137, -0.0610352, -0.0305176, 0.0610352, 26.2601, 90839.8
4763, 0.00164062, 0.0418359, 0.261782, -0.107563, 0.0489277, 0.110087, 9.85404, -0.0610352, -0.0457764, 0.0152588, 26.2707, 90840.3
4773, -0.000410156, 0.0397852, 0.241582, -0.114331, 0.0293566, 0.105195, 9.90052, 0.0457764, -0.0305176, 0.0305176, 26.257, 90840.5
4783, -0.000410156, 0.0414258, 0.260449, -0.114331, 0.0366958, 0.102748, 9.85648, -0.0305176, 0.0610352, -0.0305176, 26.2618, 90840.1
4803, 0.00164062, 0.0384521, 0.241172, -0.115562, 0.0415885, 0.107641, 9.86627, -0.0610352, 0, 0, 26.2598, 90840.6
4813, -0.00164062, 0.0418359, 0.263013, -0.110127, 0.0513741, 0.119873, 9.85648, 0.0305176, 0.0457764, 0.0610352, 26.2748, 90840.2
4823, 0.00328125, 0.0388623, 0.244145, -0.116382, 0.0464813, 0.129658, 9.86137, 0.0305176, 0.0152588, 0.0152588, 26.2673, 90840.2
4833, 0.00246094, 0.0418359, 0.260449, -0.116382, 0.0415885, 0.124766, 9.87116, 0, 0.0610352, 0, 26.2673, 90840.2
4843, 0.00246094, 0.0376318, 0.241172, -0.106333, 0.0244638, 0.124766, 9.85404, -0.0152588, 0.0457764, 0, 26.2576, 90840.1
4853, 0.00205078, 0.0376318, 0.241172, -0.115151, 0.0269102, 0.119873, 9.89073, 0.0152588, -0.0305176, 0.0915527, 26.2596, 90840
4863, 0.00205078, 0.0438867, 0.258398, -0.108384, 0.0440349, 0.107641, 9.86382, -0.0457764, 0.137329, 0.0152588, 26.2742, 90840.2
4873, 0.00246094, 0.0414258, 0.242505, -0.111357, 0.0513741, 0.122319, 9.85648, 0, -0.0152588, 0.0152588, 26.2566, 90840.5
4893, 0.00246094, 0.0392725, 0.245376, -0.109307, 0.031803, 0.124766, 9.86627, 0.0152588, -0.0762939, 0.0152588, 26.263, 90840.3
4903, 0.00451172, 0.0392725, 0.245376, -0.110537, 0.0464813, 0.117426, 9.86627, 0.0152588, 0, 0.0152588, 26.2539, 90840.2
4913, 0.00328125, 0.0410156, 0.258398, -0.110947, 0.0220175, 0.119873, 9.88339, 0.0762939, -0.0305176, 0, 26.2579, 90840.5
4923, 0.00246094, 0.0410156, 0.246196, -0.112588, 0.0293566, 0.119873, 9.86382, -0.0610352, -0.0305176, 0, 26.2603, 90840
4933, 0.000410156, 0.0406055, 0.256245, -0.110127, 0.0415885, 0.127212, 9.8785, -0.0305176, -0.0305176, 0, 26.2702, 90839.8
4943, 0.000410156, 0.0397852, 0.24835, -0.110127, 0.0220175, 0.11498, 9.85648, -0.0305176, 0, 0.0152588, 26.268, 90839.6
4953, 0.00246094, 0.0397852, 0.24835, -0.109717, 0.0440349, 0.112534, 9.87116, -0.0457764, -0.0305176, 0, 26.2612, 90840.1
4963, 0.00123047, 0.0430664, 0.251221, -0.110127, 0.031803, 0.124766, 9.88339, -0.0152588, 0.0610352, 0.0152588, 26.2597, 90840.2
4983, 0.000820312, 0.0406055, 0.24999, -0.110537, 0.0342494, 0.119873, 9.87116, 0.0152588, -0.0610352, 0.0152588, 26.2675, 90839.7
4993, 0, 0.0410156, 0.250811, -0.110537, 0.0220175, 0.119873, 9.86137, 0, 0.0457764, 0.0152588, 26.2508, 90840.8
5003, 0, 0.0401953, 0.247939, -0.108384, 0.0293566, 0.119873, 9.86382, -0.0457764, 0, 0, 26.2641, 90840.4
5013, -0.000820312, 0.0401953, 0.247939, -0.111768, 0.0244638, 0.124766, 9.86382, -0.0152588, 0, 0.0305176, 26.2576, 90840.2
5023, 0.00123047, 0.0422461, 0.253374, -0.108896, 0.0391421, 0.124766, 9.86871, -0.0457764, -0.0762939, 0.0762939, 26.2779, 90839.6
5033, 0.00164062, 0.0392725, 0.245376, -0.113511, 0.031803, 0.127212, 9.87605, 0.0305176, -0.0152588, -0.0457764, 26.2767, 90840.5
5043, 0.000410156, 0.0414258, 0.255835, -0.113511, 0.0538205, 0.136998, 9.86382, -0.106812, -0.0152588, 0.0152588, 26.2754, 90840.3
5063, 0.000820312, 0.0388623, 0.242915, -0.113921, 0.0415885, 0.122319, 9.87116, 0, 0.0457764, 0.0305176, 26.2666, 90840.4
5073, 0.00164062, 0.0422461, 0.257578, -0.105923, 0.0415885, 0.105195, 9.85404, -0.0152588, -0.0457764, -0.0152588, 26.2689, 90840.3
5083, -0.00205078, 0.0410156, 0.244966, -0.115562, 0.0391421, 0.129658, 9.85893, -0.0152588, -0.0152588, 0, 26.2573, 90840.2
5093, 0, 0.0434766, 0.258398, -0.105923, 0.031803, 0.124766, 9.85893, 0, -0.0762939, -0.0152588, 26.263, 90840.3
5103, 0, 0.0384521, 0.244145, -0.105923, 0.0269102, 0.112534, 9.88095, -0.0457764, -0.0152588, 0, 26.2651, 90840
5113, 0.00123047, 0.0384521, 0.244145, -0.112588, 0.031803, 0.124766, 9.87116, 0, 0.0152588, 0.0152588, 26.2648, 90839.9
5123, 0.00164062, 0.0414258, 0.258398, -0.106743, 0.0342494, 0.119873, 9.88095, -0.0762939, 0.0762939, 0, 26.2712, 90840.1
5133, 0.000820312, 0.0397852, 0.243735, -0.112998, 0.0269102, 0.122319, 9.88829, -0.0152588, 0.0457764, 0.0152588, 26.274, 90839.5
5153, 0.00123047, 0.0384521, 0.242095, -0.107153, 0.0440349, 0.124766, 9.85404, 0.0152588, 0.0762939, 0.0152588, 26.2753, 90840.3
5163, 0.00328125, 0.0384521, 0.242095, -0.113921, 0.0538205, 0.117426, 9.8785, 0.0305176, 0, 0.0305176, 26.2715, 90839.7
5173, 0.00123047, 0.0418359, 0.260039, -0.106743, 0.031803, 0.11498, 9.85893, 0.0152588, 0.0152588, -0.0305176, 26.2705, 90839.8
5183, 0.00123047, 0.0410156, 0.241172, -0.113921, 0.0391421, 0.117426, 9.85893, -0.0610352, 0.0152588, -0.0457764, 26.266, 90840.3
5193, 0.00205078, 0.0418359, 0.259219, -0.107974, 0.0366958, 0.11498, 9.88339, -0.106812, -0.0457764, 0.0457764, 26.2728, 90840.2
5203, 0.000820312, 0.0392725, 0.243325, -0.107974, 0.0415885, 0.122319, 9.86382, 0, -0.0152588, 0, 26.2707, 90840.4
5213, 0.000820312, 0.0406055, 0.257168, -0.113511, 0.0391421, 0.110087, 9.85404, -0.106812, 0.0305176, -0.0152588, 26.2627, 90840
5233, -0.000410156, 0.0397852, 0.245376, -0.112588, 0.0464813, 0.117426, 9.86627, 0.0152588, -0.0610352, 0.0457764, 26.2683, 90840.6
5243, 0.000820312, 0.0401953, 0.257578, -0.109307, 0.0171247, 0.132105, 9.87605, 0, -0.0152588, 0.0305176, 26.2579, 90840
5253, 0.00123047, 0.0388623, 0.243325, -0.109307, 0.0269102, 0.124766, 9.87116, -0.0305176, 0.0152588, 0.0457764, 26.2735, 90840.5
5263, 0.00123047, 0.0401953, 0.258398, -0.113511, 0.0391421, 0.127212, 9.86382, -0.0152588, -0.106812, 0.0305176, 26.2726, 90840.5
5273, 0.00123047, 0.0401953, 0.258398, -0.107563, 0.031803, 0.107641, 9.85404, -0.0305176, -0.0152588, 0, 26.2709, 90840.5
5283, 0.000820312, 0.0392725, 0.244556, -0.113511, 0.0342494, 0.119873, 9.87361, -0.0762939, 0.0305176, 0.0152588, 26.2662, 90840.3
5293, 0.00164062, 0.0376318, 0.257988, -0.109717, 0.0366958, 0.107641, 9.87605, 0, 0.0457764, -0.0610352, 26.2603, 90839.8
5303, 0.00164062, 0.0434766, 0.247939, -0.111357, 0.031803, 0.110087, 9.85893, -0.0457764, 0.0610352, -0.0152588, 26.2555, 90840.4
5323, 0, 0.0406055, 0.254194, -0.110947, 0.0440349, 0.127212, 9.86627, 0.0457764, 0.0457764, 0.0915527, 26.2537, 90839.9
5333, 0, 0.0414258, 0.250811, -0.109307, 0.0440349, 0.129658, 9.85648, 0.0610352, -0.0305176, 0.0610352, 26.2551, 90840.4
5343, 0, 0.0418359, 0.251733, -0.110127, 0.0391421, 0.129658, 9.88339, 0, 0.0610352, -0.0457764, 26.2655, 90839.7
5353, 0.000820312, 0.0388623, 0.252964, -0.109307, 0.0366958, 0.112534, 9.87116, -0.0152588, 0, 0, 26.2588, 90839.8
5363, 0.000820312, 0.0388623, 0.2504, -0.109307, 0.031803, 0.117426, 9.87605, 0.0152588, 0.0762939, 0, 26.2663, 90840.4
5373, 0, 0.0388623, 0.2504, -0.110947, 0.0464813, 0.124766, 9.86871, -0.0457764, 0.0305176, 0.0457764, 26.2835, 90841
5383, -0.000820312, 0.0384521, 0.254604, -0.108896, 0.0342494, 0.112534, 9.85893, -0.0457764, -0.0152588, -0.0152588, 26.2572, 90840.3
5403, 0.00123047, 0.0418359, 0.255015, -0.106743, 0.0366958, 0.132105, 9.86871, -0.0152588, 0.0152588, 0.0152588, 26.2508, 90839.7
5413, 0.00164062, 0.0401953, 0.245786, -0.106743, 0.0293566, 0.124766, 9.89073, -0.0305176, 0.0305176, 0.0305176, 26.2621, 90840
5423, 0.00164062, 0.0410156, 0.257988, -0.113511, 0.0513741, 0.11498, 9.85893, 0.0152588, -0.0457764, -0.0305176, 26.2623, 90839.7
5433, 0.000410156, 0.0410156, 0.257988, -0.110127, 0.0269102, 0.124766, 9.86137, -0.0457764, 0.106812, 0, 26.2657, 90840
5443, 0.00205078, 0.0388623, 0.244966, -0.113921, 0.0342494, 0.122319, 9.88584, -0.0305176, 0, -0.0305176, 26.2715, 90840
5453, 0.00246094, 0.0434766, 0.257988, -0.106743, 0.031803, 0.124766, 9.89073, 0.0457764, -0.0305176, -0.0152588, 26.2564, 90840.7
5463, 0.000410156, 0.0397852, 0.240762, -0.106743, 0.0293566, 0.110087, 9.86382, 0.0152588, 0.0305176, -0.0152588, 26.2584, 90840.2
5473, 0.000410156, 0.0418359, 0.259219, -0.113511, 0.0538205, 0.119873, 9.8785, -0.0610352, 0.0152588, 0.0152588, 26.2639, 90839.6
5493, 0.00287109, 0.0392725, 0.242095, -0.113921, 0.0293566, 0.112534, 9.86382, 0.0152588, 0.0457764, -0.0152588, 26.2653, 90840.2
5503, 0.000410156, 0.0426563, 0.261782, -0.107974, 0.031803, 0.110087, 9.87116, 0, -0.0152588, 0.0305176, 26.2718, 90840.3
5513, 0.00328125, 0.0376318, 0.242095, -0.111768, 0.031803, 0.110087, 9.86627, -0.0457764, 0.0762939, -0.0152588, 26.2679, 90840.2
5523, 0.00328125, 0.0406055, 0.260449, -0.111768, 0.0464813, 0.117426, 9.85159, -0.0305176, 0.0610352, -0.0305176, 26.2491, 90839.8
5533, 0.00123047, 0.0406055, 0.260449, -0.107153, 0.0293566, 0.105195, 9.86627, -0.0305176, 0.0762939, 0.0305176, 26.2615, 90840.5
5543, 0.000410156, 0.0392725, 0.242505, -0.113511, 0.0366958, 0.134551, 9.88339, -0.0152588, -0.0305176, 0.0610352, 26.2631, 90840.4
5553, 0, 0.0384521, 0.260449, -0.106333, 0.0440349, 0.134551, 9.85404, 0.0305176, -0.0457764, 0.0152588, 26.2665, 90839.7
5573, 0.00328125, 0.0414258, 0.258809, -0.115562, 0.0464813, 0.127212, 9.87605, 0.0152588, 0, -0.0152588, 26.2672, 90839.3
5583, 0.00164062, 0.0414258, 0.258809, -0.107153, 0.031803, 0.136998, 9.86137, 0, -0.0152588, -0.0305176, 26.2576, 90839.9
5593, 0.00164062, 0.0392725, 0.240352, -0.110947, 0.0538205, 0.122319, 9.86137, -0.0610352, -0.0152588, 0, 26.2604, 90840.4
5603, 0.00123047, 0.0422461, 0.258809, -0.109307, 0.0391421, 0.112534, 9.87361, 0, -0.0305176, -0.0152588, 26.2706, 90839.9
5613, 0, 0.0401953, 0.242095, -0.112998, 0.0366958, 0.129658, 9.88339, 0.0152588, 0.0457764, 0, 26.2721, 90840.1
5623, -0.000410156, 0.0422461, 0.256245, -0.112998, 0.0293566, 0.136998, 9.87605, -0.0152588, 0, 0, 26.2766, 90840.2
5633, -0.000410156, 0.0422461, 0.242915, -0.107974, 0.031803, 0.119873, 9.87361, -0.0152588, 0, 0.0152588, 26.2648, 90840.1
5643, 0.00205078, 0.038042, 0.242915, -0.110947, 0.0415885, 0.110087, 9.86382, -0.0305176, -0.0305176, -0.0305176, 26.2684, 90840.6
5663, 0, 0.0392725, 0.24876, -0.112178, 0.0415885, 0.122319, 9.86871, -0.0152588, -0.0152588, -0.0610352, 26.2655, 90839.8
5673, -0.00123047, 0.0410156, 0.253374, -0.112178, 0.0538205, 0.119873, 9.8785, -0.0305176, 0.0152588, -0.0610352, 26.2644, 90839.8
5683, -0.00123047, 0.0410156, 0.24917, -0.108384, 0.0489277, 0.11498, 9.86627, -0.0610352, -0.0152588, 0.0152588, 26.2601, 90840.5
5693, 0.000410156, 0.0410156, 0.24917, -0.109717, 0.0293566, 0.110087, 9.85893, -0.0915527, -0.0610352, 0, 26.2638, 90840.6
5703, 0.00205078, 0.0397852, 0.252554, -0.112178, 0.0415885, 0.119873, 9.88339, 0, -0.0457764, 0.0305176, 26.2611, 90840.3
5713, 0.00164062, 0.0392725, 0.2504, -0.111357, 0.0342494, 0.132105, 9.86382, -0.0457764, -0.0152588, 0.0305176, 26.2602, 90840.4
5723, 0, 0.0414258, 0.24958, -0.110127, 0.0244638, 0.119873, 9.86871, 0.0152588, 0.0305176, 0, 26.2619, 90840.6
5743, 0.00205078, 0.0418359, 0.250811, -0.110127, 0.0391421, 0.124766, 9.86382, 0.0457764, -0.0610352, 0, 26.2599, 90839.9
5753, 0.000820312, 0.0414258, 0.247939, -0.113511, 0.031803, 0.124766, 9.88095, -0.0457764, 0, 0.0152588, 26.2604, 90840.1
5763, 0.00164062, 0.0414258, 0.256245, -0.109717, 0.0513741, 0.11498, 9.88095, 0, -0.0152588, 0.0152588, 26.2713, 90839.5
5773, 0.00369141, 0.0401953, 0.244966, -0.110537, 0.0269102, 0.117426, 9.87605, 0, 0.0457764, 0.0305176, 26.2673, 90840.5
5783, 0.00164062, 0.0392725, 0.255015, -0.110537, 0.0391421, 0.11498, 9.87116, -0.0915527, -0.0305176, 0, 26.2641, 90840.3
5793, 0.00164062, 0.0392725, 0.255015, -0.107153, 0.0366958, 0.117426, 9.87361, -0.12207, 0.0457764, 0.0610352, 26.2651, 90840.3
5803, 0.00287109, 0.038042, 0.245376, -0.112998, 0.0440349, 0.117426, 9.87605, 0, 0.0152588, -0.0457764, 26.256, 90840.5
5813, 0.00205078, 0.0406055, 0.259219, -0.106333, 0.0293566, 0.11498, 9.87361, 0, 0.0152588, 0.0305176, 26.2647, 90839.8
5833, 0.000820312, 0.0426563, 0.262192, -0.115562, 0.0513741, 0.134551, 9.85648, -0.0152588, -0.0152588, -0.0610352, 26.2632, 90840.4
5843, 0.000820312, 0.0426563, 0.243325, -0.108896, 0.0366958, 0.136998, 9.86627, -0.0152588, -0.0457764, 0.0305176, 26.2699, 90840.3
5853, 0.00287109, 0.0397852, 0.243325, -0.116792, 0.0562668, 0.107641, 9.85648, 0, 0.0152588, 0.0457764, 26.275, 90840.6
5863, 0.00205078, 0.0401953, 0.263423, -0.107563, 0.0244638, 0.119873, 9.86137, 0.0457764, 0, 0.0152588, 26.2661, 90840
5873, 0.00123047, 0.0401953, 0.243735, -0.115151, 0.0342494, 0.117426, 9.86137, 0, 0.0762939, 0, 26.2615, 90840.7
5883, 0.00123047, 0.0414258, 0.260859, -0.115151, 0.0342494, 0.139444, 9.88584, -0.0152588, 0, -0.0457764, 26.2708, 90840.3
5893, 0.00123047, 0.0388623, 0.244145, -0.105103, 0.0366958, 0.119873, 9.86137, 0, 0.0152588, 0, 26.2582, 90840.3
5913, -0.000820312, 0.0426563, 0.260039, -0.107563, 0.0366958, 0.134551, 9.89318, 0.0457764, 0.0152588, 0.0152588, 26.2673, 90839.8
5923, 0.00164062, 0.0392725, 0.242095, -0.114741, 0.0464813, 0.134551, 9.86382, 0, 0, 0.0457764, 26.2706, 90840.5
5933, 0.00123047, 0.0406055, 0.259629, -0.106743, 0.0342494, 0.136998, 9.86627, 0, -0.0610352, 0, 26.2617, 90839.9
5943, 0.00123047, 0.0384521, 0.244556, -0.106743, 0.0342494, 0.122319, 9.88095, -0.0610352, 0.0457764, 0.0152588, 26.2717, 90840
5953, 0.00123047, 0.0384521, 0.244556, -0.114741, 0.0464813, 0.11498, 9.86382, -0.0152588, 0.0457764, 0.0457764, 26.257, 90840.5
5963, 0.000410156, 0.0452197, 0.258809, -0.109307, 0.0293566, 0.136998, 9.86137, -0.0915527, 0.0915527, 0.0152588, 26.267, 90840
5973, 0.00246094, 0.0392725, 0.245376, -0.115972, 0.0342494, 0.117426, 9.86627, 0.0762939, -0.0610352, 0.0152588, 26.26, 90840.6
5983, 0.000820312, 0.0406055, 0.259219, -0.108384, 0.031803, 0.129658, 9.86871, -0.0762939, -0.0762939, 0.0152588, 26.2672, 90840.2
6003, 0.000820312, 0.0392725, 0.245786, -0.112178, 0.0513741, 0.129658, 9.86137, 0.0152588, -0.0610352, 0.0457764, 26.2641, 90839.6
6013, 0.000820312, 0.0388623, 0.257168, -0.107974, 0.0342494, 0.11498, 9.87116, -0.0762939, 0.0152588, 0.0457764, 26.2662, 90840
6023, 0.00287109, 0.0392725, 0.247939, -0.110537, 0.0440349, 0.112534, 9.86627, -0.0152588, 0.0610352, 0.0305176, 26.2691, 90840.2
6033, 0.000820312, 0.0410156, 0.253374, -0.112178, 0.0366958, 0.122319, 9.87116, -0.0305176, -0.0457764, 0, 26.2623, 90840.6
6043, 0.000410156, 0.0384521, 0.247939, -0.112178, 0.0440349, 0.129658, 9.86871, -0.0152588, 0.0762939, 0.0152588, 26.2644, 90840.3
6053, 0.000410156, 0.0384521, 0.253784, -0.110127, 0.0342494, 0.122319, 9.86871, 0, -0.0152588, 0.0610352, 26.2652, 90840.2
6063, 0.000410156, 0.0397852, 0.253784, -0.110537, 0.0366958, 0.117426, 9.86382, -0.0305176, -0.0457764, 0.0305176, 26.276, 90839.9
6083, 0.000820312, 0.0418359, 0.24999, -0.113921, 0.0220175, 0.124766, 9.85404, -0.0305176, -0.0457764, 0.0305176, 26.2707, 90840.2
6093, 0.000410156, 0.0401953, 0.254194, -0.113921, 0.0440349, 0.136998, 9.86382, 0.0152588, 0.0457764, -0.0152588, 26.2767, 90840.2
6103, 0.000410156, 0.0397852, 0.247939, -0.109717, 0.0293566, 0.124766, 9.87116, 0.0152588, -0.0305176, 0.0305176, 26.264, 90840.2
6113, 0, 0.0397852, 0.247939, -0.112998, 0.0391421, 0.110087, 9.87605, -0.0610352, 0.0457764, 0.0610352, 26.2729, 90840.7
6123, 0.00287109, 0.0388623, 0.252964, -0.109717, 0.0391421, 0.134551, 9.87116, 0.0305176, 0.0915527, 0.0457764, 26.2606, 90840.2
6133, 0, 0.0418359, 0.247529, -0.111768, 0.031803, 0.110087, 9.88829, 0.0152588, 0.0152588, -0.0305176, 26.2655, 90840.6
6143, 0.000410156, 0.0392725, 0.256245, -0.111768, 0.0538205, 0.124766, 9.85893, 0.0152588, -0.0457764, 0.0762939, 26.2633, 90840.4
6153, 0.000410156, 0.0410156, 0.243735, -0.109717, 0.0342494, 0.110087, 9.85648, -0.106812, 0.0610352, 0.0305176, 26.2795, 90840.1
6173, -0.000410156, 0.0422461, 0.257988, -0.108384, 0.0293566, 0.119873, 9.86382, -0.0762939, -0.0915527, -0.0305176, 26.254, 90840.1
6183, 0.00287109, 0.0388623, 0.245376, -0.115562, 0.0366958, 0.122319, 9.86382, -0.0610352, 0.0457764, 0.0457764, 26.2552, 90840
6193, 0, 0.0418359, 0.260449, -0.107563, 0.0366958, 0.127212, 9.8785, 0, -0.0305176, -0.0457764, 26.2726, 90839.6
6203, 0.00246094, 0.0406055, 0.243325, -0.107563, 0.031803, 0.110087, 9.85648, 0.0457764, -0.0610352, 0.0305176, 26.2706, 90839.8
6213, 0.00246094, 0.0406055, 0.243325, -0.113921, 0.0415885, 0.122319, 9.86137, 0, -0.0457764, -0.0305176, 26.2732, 90840.6
6223, 0.00123047, 0.0406055, 0.263423, -0.107153, 0.0220175, 0.112534, 9.8785, -0.0152588, 0.0457764, 0.0152588, 26.2672, 90839.9
6233, -0.000410156, 0.0364014, 0.242915, -0.115151, 0.0391421, 0.129658, 9.88095, -0.0457764, 0, 0.0305176, 26.2655, 90840.5
6253, 0.00287109, 0.0384521, 0.245786, -0.105513, 0.0415885, 0.119873, 9.87361, -0.0762939, -0.0152588, 0.0305176, 26.2699, 90840.5
6263, 0.00287109, 0.0384521, 0.259629, -0.116792, 0.0562668, 0.112534, 9.86382, 0.0152588, -0.0457764, 0.0610352, 26.2627, 90839
6273, 0.00205078, 0.0414258, 0.259629, -0.105513, 0.031803, 0.107641, 9.86137, -0.0610352, 0.0762939, 0.0305176, 26.2682, 90840.4
6283, 0.00164062, 0.038042, 0.241172, -0.115972, 0.0440349, 0.110087, 9.85893, 0.0152588, 0.0457764, 0.0305176, 26.2606, 90840.5
6293, 0.000820312, 0.0434766, 0.26127, -0.106333, 0.0244638, 0.124766, 9.88584, 0.0152588, -0.0152588, 0.0610352, 26.2665, 90840.1
6303, 0.000820312, 0.0376318, 0.243325, -0.106333, 0.0293566, 0.119873, 9.86871, 0, 0, -0.0305176, 26.2654, 90840.2
6313, 0.000820312, 0.0376318, 0.259629, -0.114331, 0.00244638, 0.124766, 9.8785, -0.0152588, -0.0305176, 0, 26.2748, 90839.9
6323, 0.00369141, 0.0426563, 0.259629, -0.107563, 0.0269102, 0.110087, 9.87361, -0.0305176, 0.0610352, 0.0305176, 26.2704, 90840.8
6343, 0.000410156, 0.0422461, 0.257988, -0.109717, 0.0415885, 0.11498, 9.87361, 0, 0.0610352, 0, 26.2672, 90840.6
6353, 0, 0.0397852, 0.246196, -0.109717, 0.0366958, 0.11498, 9.8785, -0.106812, 0.0152588, 0.0457764, 26.265, 90840.5
6363, 0, 0.0388623, 0.255425, -0.115151, 0.0415885, 0.102748, 9.88095, -0.0457764, -0.0915527, 0.0305176, 26.2681, 90840.2
6373, 0.00123047, 0.0388623, 0.255425, -0.108384, 0.0342494, 0.102748, 9.86871, -0.0610352, -0.0457764, 0.0610352, 26.2725, 90840.5
6383, 0.00123047, 0.0388623, 0.24958, -0.112998, 0.0342494, 0.11498, 9.85648, 0, 0.0457764, 0.0610352, 26.2676, 90839.4
6393, 0.000410156, 0.0414258, 0.255425, -0.113511, 0.0293566, 0.107641, 9.89073, -0.0457764, -0.0762939, -0.0457764, 26.2809, 90840
6403, 0.000820312, 0.0406055, 0.250811, -0.112178, 0.0489277, 0.127212, 9.86137, 0, 0.0457764, -0.0305176, 26.2775, 90840.2
6413, 0.00164062, 0.0401953, 0.254194, -0.112178, 0.0440349, 0.110087, 9.87361, -0.0305176, -0.0610352, 0.0762939, 26.2649, 90840.2
6433, 0.00205078, 0.0410156, 0.251733, -0.110537, 0.0464813, 0.132105, 9.85159, 0.0305176, -0.0152588, 0.0305176, 26.2671, 90839.7
6443, 0.000410156, 0.0406055, 0.253784, -0.111768, 0.0489277, 0.110087, 9.89073, 0.0152588, 0.0762939, 0.0152588, 26.2699, 90839.9
6453, 0.00205078, 0.0401953, 0.254604, -0.110947, 0.031803, 0.122319, 9.87116, -0.0457764, -0.0762939, -0.0305176, 26.2725, 90840.1
6463, -0.00123047, 0.0418359, 0.251733, -0.110947, 0.0244638, 0.119873, 9.86871, 0.0305176, -0.0305176, 0, 26.2681, 90839.5
6473, -0.00123047, 0.0418359, 0.255835, -0.114741, 0.0366958, 0.100302, 9.88339, -0.12207, 0.0610352, 0.0152588, 26.2681, 90840.8
6483, 0.00328125, 0.0414258, 0.255835, -0.108384, 0.0293566, 0.119873, 9.86382, 0, -0.0457764, 0, 26.2609, 90840.3
6493, -0.00164062, 0.0410156, 0.247119, -0.113511, 0.0293566, 0.11498, 9.86137, 0.0305176, 0.106812, 0.0152588, 26.2733, 90840
6513, 0.00164062, 0.0392725, 0.247939, -0.108384, 0.0293566, 0.110087, 9.87605, 0.0305176, 0.0152588, 0.0457764, 26.2743, 90840.6
6523, 0.00164062, 0.0392725, 0.260449, -0.115151, 0.0489277, 0.122319, 9.85648, -0.0610352, -0.106812, 0.0457764, 26.2785, 90840.3
6533, 0.00246094, 0.0414258, 0.260449, -0.107563, 0.031803, 0.117426, 9.89562, -0.106812, -0.0457764, 0.0152588, 26.2735, 90839.9
6543, -0.000410156, 0.0401953, 0.244966, -0.113921, 0.0538205, 0.119873, 9.88829, -0.0457764, -0.0610352, -0.0457764, 26.2621, 90840
6553, 0.000410156, 0.0430664, 0.260449, -0.106743, 0.031803, 0.11498, 9.86871, -0.0457764, 0.0610352, 0.0457764, 26.2631, 90840.2
6563, -0.000820312, 0.0410156, 0.243325, -0.106743, 0.0220175, 0.112534, 9.86627, 0, -0.0152588, -0.0610352, 26.2742, 90840.4
6573, -0.000820312, 0.0418359, 0.261782, -0.113921, 0.0440349, 0.117426, 9.87605, -0.0457764, 0, 0, 26.2728, 90840.2
6583, 0.000820312, 0.0418359, 0.261782, -0.106743, 0.0391421, 0.132105, 9.8785, 0, 0.0305176, 0.0305176, 26.2659, 90840.7
6603, 0, 0.0418359, 0.261782, -0.107153, 0.0391421, 0.124766, 9.8785, -0.0305176, 0.0305176, 0.0305176, 26.2608, 90840.1
6613, 0.00164062, 0.0384521, 0.242915, -0.113921, 0.0562668, 0.119873, 9.87361, 0, 0.0152588, 0.0305176, 26.2604, 90840.7
6623, 0.00328125, 0.0410156, 0.262603, -0.113921, 0.0342494, 0.134551, 9.85404, 0, -0.0762939, 0, 26.2615, 90839.9
6633, 0.00328125, 0.0410156, 0.262603, -0.106743, 0.0293566, 0.134551, 9.87361, 0.0915527, 0.0457764, 0, 26.2686, 90840.3
6643, 0.00205078, 0.0392725, 0.242095, -0.113511, 0.0342494, 0.134551, 9.87605, 0.0610352, -0.0305176, -0.0305176, 26.2618, 90839.9
6653, -0.000410156, 0.0406055, 0.259219, -0.107153, 0.0269102, 0.124766, 9.8785, -0.0305176, 0.0305176, 0.0152588, 26.2707, 90840
6663, 0.00123047, 0.0410156, 0.242915, -0.112998, 0.0415885, 0.117426, 9.8785, -0.0762939, 0.0305176, 0.0152588, 26.263, 90840.1
6683, -0.000410156, 0.0426563, 0.244966, -0.108896, 0.0342494, 0.129658, 9.85159, 0.0152588, 0.0305176, -0.0152588, 26.2879, 90839.9
6693, 0.00164062, 0.0392725, 0.244966, -0.114331, 0.0391421, 0.119873, 9.87605, 0.0457764, -0.0152588, -0.0152588, 26.2771, 90839.8
6703, 0.00205078, 0.0401953, 0.257988, -0.109307, 0.0366958, 0.112534, 9.89073, -0.0305176, 0.0305176, -0.0305176, 26.2642, 90839.7
6713, 0.000410156, 0.0384521, 0.246196, -0.113921, 0.0489277, 0.136998, 9.87116, -0.0762939, 0.0152588, -0.0305176, 26.2768, 90839.8
6723, 0.00123047, 0.0426563, 0.258809, -0.113921, 0.0366958, 0.11498, 9.88095, -0.0152588, 0.0457764, -0.0152588, 26.269, 90840.2
6733, 0.00123047, 0.0426563, 0.24835, -0.107974, 0.0244638, 0.119873, 9.88095, 0.0305176, -0.0305176, -0.0305176, 26.2767, 90840.4
6743, -0.000820312, 0.038042, 0.24835, -0.111768, 0.0391421, 0.112534, 9.85648, 0, -0.0305176, 0, 26.2671, 90840.5
6753, 0.000820312, 0.0410156, 0.255835, -0.109307, 0.0269102, 0.117426, 9.86627, -0.0457764, 0.0305176, 0.0152588, 26.2905, 90839.9
6773, 0.000410156, 0.0397852, 0.255015, -0.110127, 0.0342494, 0.127212, 9.87361, -0.0305176, -0.0610352, 0.0305176, 26.2822, 90840
6783, 0.00164062, 0.0397852, 0.251733, -0.110947, 0.0538205, 0.112534, 9.87605, -0.0457764, 0.0915527, 0.0152588, 26.276, 90840
6793, 0.00164062, 0.0397852, 0.251733, -0.109307, 0.0440349, 0.136998, 9.86871, -0.0762939, -0.0457764, 0, 26.2762, 90839.8
6803, 0, 0.038042, 0.2504, -0.110127, 0.0342494, 0.117426, 9.85648, -0.0152588, -0.0305176, 0.0457764, 26.2682, 90840.2
6813, 0.000410156, 0.0397852, 0.251733, -0.110537, 0.0342494, 0.110087, 9.87361, -0.0152588, 0.0915527, 0.0305176, 26.2813, 90840.1
6823, 0.000410156, 0.0422461, 0.24958, -0.112998, 0.0415885, 0.122319, 9.87116, 0, 0.0457764, -0.0152588, 26.2809, 90840
6833, -0.00123047, 0.0406055, 0.256758, -0.112998, 0.031803, 0.105195, 9.8785, -0.0762939, 0.0152588, 0.0457764, 26.2747, 90840.5
6853, 0.00205078, 0.0414258, 0.246196, -0.113921, 0.0415885, 0.117426, 9.88339, -0.0762939, 0, 0, 26.2781, 90840.2
6863, 0.00205078, 0.0401953, 0.256758, -0.106333, 0.0440349, 0.134551, 9.85648, 0, 0.0305176, -0.0152588, 26.271, 90840.3
6873, 0.000820312, 0.0414258, 0.246196, -0.115562, 0.0415885, 0.119873, 9.87361, 0.0305176, 0.0610352, 0.0610352, 26.2658, 90840.5
6883, 0.00123047, 0.0406055, 0.258809, -0.115562, 0.0244638, 0.100302, 9.86627, -0.0610352, 0.0457764, 0.0152588, 26.2645, 90840.2
6893, 0.00123047, 0.0406055, 0.243735, -0.106333, 0.0391421, 0.105195, 9.86627, -0.0610352, -0.0457764, 0, 26.2813, 90839.4
6903, 0.00123047, 0.0426563, 0.243735, -0.113921, 0.0391421, 0.117426, 9.86382, -0.0457764, -0.0457764, 0.0152588, 26.276, 90840.1
6913, 0.00205078, 0.0410156, 0.257988, -0.107153, 0.0464813, 0.110087, 9.8785, 0.0305176, -0.0305176, 0.0152588, 26.2792, 90840.1
6923, 0.00205078, 0.0388623, 0.241582, -0.114331, 0.0391421, 0.124766, 9.86871, -0.0610352, 0, 0, 26.2767, 90840.3
6943, 0.00246094, 0.0422461, 0.243735, -0.106743, 0.0293566, 0.107641, 9.89562, -0.0915527, 0.0457764, 0.0305176, 26.2705, 90840
6953, 0.000410156, 0.0384521, 0.243735, -0.116382, 0.0269102, 0.112534, 9.86382, -0.0610352, -0.0915527, 0.0457764, 26.2816, 90840
6963, 0.000820312, 0.0414258, 0.26127, -0.104692, 0.0269102, 0.127212, 9.8785, 0, 0, 0.0610352, 26.2681, 90841.4
6973, 0.00123047, 0.0422461, 0.260039, -0.106333, 0.0293566, 0.110087, 9.87361, -0.0305176, 0.0152588, 0, 26.2765, 90840.2
7023, 0.000820312, 0.038042, 0.243325, -0.112588, 0.0366958, 0.11498, 9.87605, 0, 0.0305176, -0.0152588, 26.2871, 90840.4
7043, 0.00246094, 0.0384521, 0.243325, -0.105923, 0.031803, 0.112534, 9.88829, -0.0152588, 0.0762939, 0, 26.2716, 90840.5
7053, 0.00246094, 0.0384521, 0.243325, -0.112178, 0.0293566, 0.117426, 9.8785, -0.0610352, 0.0457764, 0, 26.2787, 90840.5
7063, 0.00123047, 0.0414258, 0.257578, -0.107974, 0.0415885, 0.136998, 9.87116, -0.0152588, 0, -0.0152588, 26.272, 90840.5
7073, 0.00451172, 0.0392725, 0.244145, -0.110947, 0.0244638, 0.105195, 9.87605, -0.0152588, 0, 0.0152588, 26.2753, 90840.4
7083, 0.00328125, 0.0442969, 0.259219, -0.108896, 0.0293566, 0.105195, 9.86382, -0.0152588, -0.0915527, 0.0457764, 26.2768, 90840.6
7093, 0.00123047, 0.0364014, 0.244556, -0.108896, 0.0244638, 0.132105, 9.88339, -0.0457764, 0.0152588, 0.0152588, 26.269, 90840
7103, 0.00123047, 0.0364014, 0.256245, -0.115972, 0.0464813, 0.112534, 9.85893, -0.0762939, -0.0610352, -0.0610352, 26.2739, 90840.7
7113, 0.00246094, 0.0426563, 0.256245, -0.109717, 0.0391421, 0.11498, 9.88095, 0, -0.0457764, 0, 26.2728, 90840.2
7133, 0.000820312, 0.0392725, 0.257168, -0.111768, 0.0220175, 0.11498, 9.89318, -0.0915527, 0.0305176, 0.0457764, 26.2595, 90840
7143, 0.000820312, 0.0388623, 0.250811, -0.111768, 0.0342494, 0.105195, 9.87605, -0.0305176, -0.0152588, 0.0152588, 26.2758, 90840.2
7153, 0.000820312, 0.0388623, 0.251733, -0.110947, 0.0293566, 0.122319, 9.84425, 0.0305176, 0.0305176, 0, 26.2841, 90839.9
7163, 0.000410156, 0.0422461, 0.251733, -0.110947, 0.0440349, 0.124766, 9.8785, -0.0610352, -0.0152588, -0.0305176, 26.2646, 90840.2
7173, 0.00123047, 0.0392725, 0.253784, -0.110537, 0.0415885, 0.119873, 9.86871, -0.0762939, 0.0305176, 0, 26.2762, 90840.4
7183, 0.00123047, 0.0422461, 0.24958, -0.109717, 0.0415885, 0.119873, 9.87361, -0.0152588, 0.0152588, -0.0457764, 26.2728, 90840.4
7193, 0.00123047, 0.0384521, 0.255015, -0.109717, 0.0415885, 0.124766, 9.86627, 0, 0.0457764, -0.0305176, 26.2764, 90839.9
7213, 0.00205078, 0.0418359, 0.246709, -0.112178, 0.0342494, 0.119873, 9.85648, 0.0305176, 0.0305176, 0.0305176, 26.2692, 90840.4
7223, 0.00164062, 0.0397852, 0.255835, -0.108896, 0.0513741, 0.11498, 9.86871, 0, -0.0152588, 0.0610352, 26.278, 90839.7
7233, 0.00410156, 0.0406055, 0.247939, -0.113921, 0.0391421, 0.105195, 9.86137, 0.0152588, -0.0610352, -0.0152588, 26.2752, 90840.5
7243, 0.00123047, 0.0392725, 0.259219, -0.107563, 0.0366958, 0.119873, 9.86137, -0.12207, -0.0610352, 0.0305176, 26.2792, 90840.1
7253, 0, 0.0388623, 0.246196, -0.107563, 0.0146783, 0.11498, 9.86871, -0.106812, -0.0152588, 0, 26.2657, 90840.4
7263, 0, 0.0388623, 0.246196, -0.114741, 0.0538205, 0.112534, 9.8785, -0.0457764, 0.0457764, 0.0152588, 26.27, 90840.1
7273, 0.00164062, 0.0401953, 0.260859, -0.108896, 0.031803, 0.134551, 9.86382, -0.0457764, -0.0457764, -0.0457764, 26.2813, 90840
7283, 0.000820312, 0.0418359, 0.242505, -0.112178, 0.031803, 0.110087, 9.85404, -0.0610352, 0.0152588, 0.0457764, 26.2581, 90840.3
7303, -0.00246094, 0.0401953, 0.242095, -0.107974, 0.0342494, 0.132105, 9.86627, 0.0305176, -0.0152588, 0.0305176, 26.2589, 90840.8
7313, -0.00246094, 0.0401953, 0.259219, -0.113511, 0.0464813, 0.119873, 9.84914, -0.12207, 0.0457764, 0.0305176, 26.2771, 90839.8
7323, 0.000820312, 0.0418359, 0.259219, -0.107974, 0.0391421, 0.117426, 9.88584, -0.0457764, -0.0762939, 0.0610352, 26.2761, 90839.8
7333, 0.00410156, 0.0410156, 0.242095, -0.115972, 0.031803, 0.124766, 9.86137, -0.0610352, -0.0610352, 0, 26.2854, 90840.1
7343, 0, 0.0401953, 0.262603, -0.106743, 0.0391421, 0.129658, 9.86382, -0.0305176, 0.12207, 0.0305176, 26.2841, 90840
7353, 0.000820312, 0.0392725, 0.241172, -0.106743, 0.0440349, 0.105195, 9.87116, -0.0610352, 0.0152588, 0.0457764, 26.2787, 90840
7363, 0.000820312, 0.0392725, 0.261782, -0.114741, 0.0513741, 0.112534, 9.86137, -0.0457764, 0.0152588, 0.0305176, 26.2818, 90839.9
7383, 0.00246094, 0.0384521, 0.244966, -0.114741, 0.0342494, 0.117426, 9.86871, -0.0305176, 0, 0.0152588, 26.2819, 90839.9
7393, 0.00246094, 0.0401953, 0.262192, -0.107153, 0.0293566, 0.11498, 9.88584, -0.0457764, 0.106812, -0.0152588, 26.2764, 90840.3
7403, 0.00205078, 0.0397852, 0.244556, -0.107153, 0.0415885, 0.119873, 9.85648, -0.0152588, 0.106812, -0.0457764, 26.2641, 90840.1
7413, 0.00123047, 0.0397852, 0.259629, -0.115562, 0.0464813, 0.110087, 9.89073, -0.0305176, 0.0305176, 0.0610352, 26.2675, 90839.9
7423, 0.00123047, 0.0410156, 0.259629, -0.106743, 0.0366958, 0.11498, 9.87116, 0.0152588, -0.0152588, 0.0152588, 26.2805, 90840
7433, 0.00164062, 0.0372217, 0.243325, -0.112588, 0.0342494, 0.105195, 9.85893, -0.0152588, 0.0457764, 0, 26.2827, 90840.5
7443, 0, 0.0397852, 0.257168, -0.108384, 0.0391421, 0.134551, 9.8785, 0.0610352, 0.0305176, -0.0457764, 26.2773, 90840.6
7453, -0.000410156, 0.0392725, 0.244556, -0.114741, 0.0464813, 0.117426, 9.8785, -0.0152588, 0.0457764, -0.0152588, 26.2759, 90839.5
7473, 0.00123047, 0.0401953, 0.255425, -0.108896, 0.0342494, 0.124766, 9.86382, -0.0152588, 0.0152588, 0.0152588, 26.2743, 90840
7483, -0.00123047, 0.038042, 0.247529, -0.111768, 0.0269102, 0.117426, 9.88339, -0.0152588, 0.0305176, 0.0152588, 26.2778, 90839.9
7493, 0.00164062, 0.0414258, 0.255015, -0.110947, 0.0342494, 0.122319, 9.88339, 0, 0.0305176, 0.0152588, 26.2843, 90840.4
7503, 0.00123047, 0.0401953, 0.252554, -0.111357, 0.031803, 0.11498, 9.87605, -0.0915527, 0.0457764, 0, 26.2782, 90840.4
7513, 0.00123047, 0.0438867, 0.252964, -0.111357, 0.0440349, 0.119873, 9.86382, -0.0762939, -0.0305176, 0.0152588, 26.283, 90839.9
7523, 0.00123047, 0.0438867, 0.250811, -0.111768, 0.0391421, 0.124766, 9.87605, -0.0305176, -0.0152588, -0.0305176, 26.2801, 90840.6
7533, -0.000820312, 0.0384521, 0.250811, -0.111768, 0.0415885, 0.136998, 9.86137, -0.0152588, 0, 0.0305176, 26.2832, 90840
7543, -0.00246094, 0.0406055, 0.251733, -0.112178, 0.0293566, 0.102748, 9.88584, -0.0610352, 0.0457764, 0.0305176, 26.2682, 90840.3
7563, 0.00164062, 0.0410156, 0.24876, -0.108384, 0.0293566, 0.110087, 9.86627, -0.0610352, 0.0152588, 0.0457764, 26.281, 90840.2
7573, 0.00123047, 0.0410156, 0.255015, -0.112588, 0.0538205, 0.105195, 9.86627, -0.0610352, 0.0457764, -0.0152588, 26.2847, 90840
7583, 0.00123047, 0.0397852, 0.255015, -0.108896, 0.0342494, 0.117426, 9.86871, -0.0305176, 0.0457764, -0.0305176, 26.2762, 90839.9
7593, 0.00328125, 0.0414258, 0.244556, -0.112178, 0.0342494, 0.119873, 9.86382, 0, 0.0305176, 0.0152588, 26.2816, 90840.8
7603, 0.00369141, 0.038042, 0.256245, -0.107974, 0.0440349, 0.112534, 9.86382, -0.0457764, -0.0305176, 0.0457764, 26.2858, 90840.2
7613, 0.000410156, 0.0414258, 0.243325, -0.107974, 0.031803, 0.119873, 9.88829, -0.0762939, -0.0152588, 0.0152588, 26.2789, 90839.6
7623, 0.00164062, 0.0414258, 0.260039, -0.114331, 0.0366958, 0.122319, 9.86137, -0.0305176, 0.0305176, 0.0305176, 26.2816, 90840.3
7643, 0.00287109, 0.0406055, 0.243325, -0.115562, 0.0440349, 0.124766, 9.86382, 0, 0.0152588, 0, 26.2891, 90840.3
7653, 0.000820312, 0.0397852, 0.260449, -0.105923, 0.0366958, 0.124766, 9.86137, -0.0305176, 0, -0.0457764, 26.2805, 90840.5
7663, 0.00164062, 0.0410156, 0.244556, -0.113921, 0.0464813, 0.122319, 9.88339, -0.0457764, -0.0610352, -0.0305176, 26.2738, 90840.4
7673, 0.00287109, 0.0406055, 0.262603, -0.113921, 0.031803, 0.132105, 9.87116, -0.0152588, 0.0457764, -0.0457764, 26.2782, 90840.4
7683, 0.00287109, 0.0406055, 0.262603, -0.107153, 0.0293566, 0.127212, 9.86382, -0.12207, 0, 0.0762939, 26.284, 90839.9
7693, 0.00246094, 0.0406055, 0.242915, -0.112588, 0.0464813, 0.117426, 9.88095, -0.0152588, -0.0762939, 0.0152588, 26.282, 90840.5
7703, 0.00205078, 0.0392725, 0.26127, -0.106743, 0.0415885, 0.11498, 9.86382, -0.0610352, 0.0915527, -0.0762939, 26.2772, 90840.6
7713, 0, 0.0422461, 0.241582, -0.115972, 0.0440349, 0.124766, 9.85648, 0.0152588, -0.0457764, 0.0457764, 26.2758, 90839.8
7733, 0.000410156, 0.0410156, 0.241582, -0.107563, 0.0171247, 0.102748, 9.86382, -0.0152588, -0.0152588, 0, 26.2865, 90839.8
7743, 0, 0.0392725, 0.241582, -0.114331, 0.031803, 0.105195, 9.85648, -0.0762939, 0.0305176, 0.0152588, 26.2844, 90840.4
7753, 0.000410156, 0.0422461, 0.261782, -0.107974, 0.031803, 0.107641, 9.88339, -0.0610352, 0.0457764, 0, 26.2712, 90840.2
7763, 0.00164062, 0.0397852, 0.245376, -0.115562, 0.0440349, 0.122319, 9.85893, 0.0152588, 0.0305176, -0.0152588, 26.2932, 90840
7773, 0.00164062, 0.0406055, 0.260449, -0.115562, 0.0464813, 0.122319, 9.86871, 0.0152588, 0.0152588, 0.0457764, 26.2904, 90840.1
7783, 0.00123047, 0.0406055, 0.245376, -0.107563, 0.0440349, 0.124766, 9.87116, 0, 0.0457764, 0.0457764, 26.2773, 90840
7793, 0.00123047, 0.0388623, 0.245376, -0.113921, 0.0391421, 0.124766, 9.8785, -0.0457764, 0, -0.0457764, 26.2813, 90840.2
7813, -0.000410156, 0.0392725, 0.247529, -0.112998, 0.0391421, 0.124766, 9.8785, -0.0305176, 0, 0, 26.2825, 90840.3
7823, 0.00205078, 0.0442969, 0.258398, -0.112998, 0.031803, 0.122319, 9.86627, -0.0152588, -0.0305176, -0.0152588, 26.2847, 90840.6
7833, 0, 0.0442969, 0.247119, -0.109717, 0.031803, 0.124766, 9.87116, -0.0457764, 0, 0.0915527, 26.2769, 90840.3
7843, 0, 0.0414258, 0.247119, -0.113921, 0.031803, 0.110087, 9.87116, -0.0305176, 0.0915527, 0.0457764, 26.2802, 90839.9
7853, 0.000410156, 0.0392725, 0.254604, -0.107974, 0.0366958, 0.119873, 9.88584, -0.0457764, -0.0152588, 0, 26.2827, 90840
7863, 0, 0.0388623, 0.24835, -0.111357, 0.0391421, 0.117426, 9.87116, -0.0305176, -0.0610352, 0, 26.2753, 90840.3
7873, 0.000820312, 0.0422461, 0.252144, -0.111357, 0.0415885, 0.122319, 9.86627, -0.0762939, -0.0152588, 0.0305176, 26.2864, 90839.6
7883, 0.000820312, 0.0422461, 0.254194, -0.112178, 0.0562668, 0.107641, 9.86871, 0.0152588, 0.106812, 0, 26.2723, 90840.8
7903, 0.000820312, 0.0401953, 0.24999, -0.111357, 0.031803, 0.129658, 9.87116, -0.106812, 0.0610352, 0, 26.2727, 90840.4
7913, 0.00246094, 0.0376318, 0.253374, -0.109717, 0.031803, 0.129658, 9.88095, -0.0152588, -0.0457764, 0.0152588, 26.2817, 90840
7923, 0.000820312, 0.0414258, 0.2504, -0.112588, 0.0293566, 0.124766, 9.87116, -0.106812, 0.0457764, 0, 26.2825, 90840.7
7933, 0.00123047, 0.0392725, 0.255835, -0.112588, 0.0122319, 0.124766, 9.87361, 0.0457764, -0.0457764, 0.0152588, 26.2799, 90839.9
7943, 0.00123047, 0.0392725, 0.255835, -0.108896, 0.0244638, 0.11498, 9.87605, 0, 0.0305176, 0.0457764, 26.2755, 90840.1
7953, 0.00164062, 0.038042, 0.244145, -0.112998, 0.0220175, 0.122319, 9.85404, 0.0152588, -0.0610352, 0.0305176, 26.2776, 90839.9
7963, 0.000820312, 0.0406055, 0.257988, -0.107563, 0.0391421, 0.110087, 9.86382, -0.0610352, -0.0305176, 0.0305176, 26.2829, 90839.9
7983, 0.000410156, 0.038042, 0.256245, -0.114331, 0.0391421, 0.117426, 9.85893, -0.0762939, -0.0152588, -0.0152588, 26.2941, 90839.8
7993, 0.00246094, 0.038042, 0.245786, -0.105923, 0.0293566, 0.105195, 9.86627, -0.0610352, 0.0610352, 0.0305176, 26.283, 90839.9
8003, 0.00246094, 0.0410156, 0.245786, -0.113511, 0.0440349, 0.132105, 9.85648, -0.0610352, 0.0305176, 0.0152588, 26.2838, 90840.2
8013, 0.00502441, 0.0388623, 0.258809, -0.109307, 0.0440349, 0.124766, 9.86137, 0.0762939, -0.0762939, -0.0152588, 26.2747, 90840.2
8023, 0.00287109, 0.0434766, 0.243325, -0.113921, 0.0146783, 0.119873, 9.86382, 0.0610352, -0.0152588, 0, 26.2769, 90840.1
8033, 0.00164062, 0.0388623, 0.263013, -0.113921, 0.0489277, 0.107641, 9.89073, -0.0457764, 0.0610352, 0.0152588, 26.276, 90840.2
8043, 0.00205078, 0.0388623, 0.244966, -0.108384, 0.0342494, 0.122319, 9.86382, -0.0457764, 0.0152588, 0, 26.2859, 90839.8
8053, 0.00205078, 0.0422461, 0.244966, -0.114331, 0.0440349, 0.134551, 9.87605, -0.0762939, -0.0152588, -0.0305176, 26.2944, 90839.7
8073, 0.00164062, 0.0401953, 0.242095, -0.115972, 0.0366958, 0.11498, 9.85893, -0.0305176, -0.0457764, 0, 26.2903, 90839.5
8083, 0.00205078, 0.0418359, 0.262192, -0.115972, 0.0342494, 0.110087, 9.88829, -0.0305176, 0.0305176, 0, 26.3088, 90839.8
8093, 0.000820312, 0.0418359, 0.242095, -0.108384, 0.0220175, 0.107641, 9.87361, -0.0915527, 0.0305176, 0.0152588, 26.3012, 90840.3
8103, 0.000820312, 0.0397852, 0.242095, -0.114741, 0.0489277, 0.146783, 9.87116, 0, -0.0610352, 0.0152588, 26.2957, 90839.5
8113, -0.00123047, 0.0410156, 0.263013, -0.107974, 0.0464813, 0.129658, 9.88095, -0.0152588, 0.0610352, 0, 26.2942, 90840
8123, 0.00451172, 0.0406055, 0.244556, -0.113921, 0.0391421, 0.122319, 9.86137, 0, -0.0152588, 0, 26.294, 90839.5
8133, 0.00246094, 0.0406055, 0.260449, -0.106333, 0.0269102, 0.107641, 9.88095, -0.0152588, -0.0305176, 0.0152588, 26.2897, 90839.8
8153, 0, 0.0384521, 0.244966, -0.112588, 0.0391421, 0.127212, 9.88584, -0.0457764, 0.0305176, -0.0152588, 26.2866, 90840.2
8163, -0.000820312, 0.0434766, 0.260859, -0.108896, 0.0415885, 0.124766, 9.87361, -0.0457764, 0.0305176, 0.0610352, 26.2808, 90839.7
8173, 0.00164062, 0.0368115, 0.247939, -0.111768, 0.0415885, 0.117426, 9.87361, -0.0915527, -0.106812, 0.0152588, 26.2774, 90840.3
8183, 0.000820312, 0.0422461, 0.258398, -0.109717, 0.0269102, 0.127212, 9.87605, 0.0457764, 0.0762939, -0.0305176, 26.2921, 90839.7
8193, -0.00164062, 0.0384521, 0.246709, -0.109717, 0.0391421, 0.119873, 9.87361, -0.0762939, -0.0762939, 0.0457764, 26.2897, 90840.1
8203, 0.00164062, 0.0384521, 0.255425, -0.113921, 0.0146783, 0.132105, 9.87361, -0.183105, 0.0610352, 0.0610352, 26.2878, 90840.1
8213, 0.00164062, 0.0426563, 0.255425, -0.108896, 0.0366958, 0.129658, 9.8785, -0.0915527, -0.0610352, 0.0152588, 26.2873, 90840.1
8223, 0.000820312, 0.0392725, 0.24835, -0.112178, 0.0293566, 0.11498, 9.89807, -0.0152588, -0.0152588, 0, 26.2869, 90840.2
8243, 0.00205078, 0.0388623, 0.251221, -0.110537, 0.0464813, 0.122319, 9.86137, -0.0762939, -0.0152588, 0.0610352, 26.2891, 90840.3
8253, 0.000410156, 0.0388623, 0.252144, -0.110947, 0.0293566, 0.119873, 9.87116, -0.0762939, 0.0915527, -0.0152588, 26.2816, 90839.9
8263, 0.000410156, 0.0397852, 0.252144, -0.110947, 0.0415885, 0.122319, 9.85404, 0.0152588, 0, 0.0152588, 26.2819, 90839.4
8273, 0.00369141, 0.0392725, 0.253784, -0.110537, 0.0269102, 0.127212, 9.86871, -0.0457764, 0.0152588, 0.0152588, 26.2842, 90840.1
8283, 0.00123047, 0.0426563, 0.250811, -0.110947, 0.0440349, 0.107641, 9.87361, -0.0152588, -0.0305176, 0, 26.282, 90840.3
8293, 0.00123047, 0.0372217, 0.255425, -0.110947, 0.0269102, 0.117426, 9.85893, -0.0152588, -0.0152588, 0.0305176, 26.2767, 90840.3
8303, 0.000820312, 0.0372217, 0.247939, -0.110127, 0.0489277, 0.11498, 9.85159, -0.0915527, 0.0305176, 0, 26.284, 90840.2
8323, 0.00164062, 0.0406055, 0.259629, -0.108896, 0.031803, 0.124766, 9.87116, 0.0152588, -0.0457764, -0.0457764, 26.2848, 90839.8
8333, 0, 0.0418359, 0.247119, -0.110537, 0.0415885, 0.117426, 9.85648, -0.0457764, 0.0610352, 0.0305176, 26.2809, 90840
8343, -0.000410156, 0.0414258, 0.258398, -0.107153, 0.0293566, 0.110087, 9.88829, -0.0457764, 0.0762939, -0.0152588, 26.2767, 90840.7
8353, 0.00205078, 0.0397852, 0.246709, -0.107153, 0.0415885, 0.112534, 9.87116, 0.0152588, 0.0305176, 0.0457764, 26.2883, 90839.7
8363, 0.00205078, 0.0397852, 0.246709, -0.112998, 0.0342494, 0.112534, 9.85893, -0.0610352, 0.0610352, -0.106812, 26.274, 90840.2
8373, 0, 0.0397852, 0.261782, -0.106743, 0.031803, 0.11498, 9.87605, -0.0915527, 0.12207, 0.0305176, 26.2878, 90839.9
8383, -0.000410156, 0.0401953, 0.244556, -0.115562, 0.0562668, 0.129658, 9.87605, 0.0915527, 0, 0.0305176, 26.2789, 90839.7
8393, 0.00164062, 0.0384521, 0.261782, -0.108384, 0.0415885, 0.124766, 9.87361, 0, 0.0305176, -0.0305176, 26.2929, 90840.2
8413, -0.000410156, 0.0418359, 0.26127, -0.114331, 0.0415885, 0.119873, 9.84914, 0.0152588, 0, 0.0762939, 26.2906, 90840.7
8423, -0.000410156, 0.0392725, 0.26127, -0.106743, 0.0342494, 0.127212, 9.87116, -0.0305176, 0.0610352, -0.0152588, 26.2892, 90840.2
8433, 0.00287109, 0.038042, 0.242095, -0.114741, 0.0220175, 0.117426, 9.87116, -0.0762939, -0.0152588, 0.0305176, 26.2787, 90839.7
8443, 0.000410156, 0.0397852, 0.260449, -0.108896, 0.0366958, 0.119873, 9.87116, 0, 0.0610352, 0.0305176, 26.2924, 90840.2
8453, 0.000820312, 0.0406055, 0.242915, -0.108896, 0.031803, 0.119873, 9.85893, -0.0457764, -0.0457764, -0.0152588, 26.2848, 90840.5
8463, 0, 0.0406055, 0.260859, -0.112998, 0.0220175, 0.134551, 9.86137, 0, -0.0152588, 0.0152588, 26.2919, 90840.3
8473, 0, 0.0401953, 0.260859, -0.106743, 0.0342494, 0.127212, 9.88095, 0, 0, -0.0305176, 26.288, 90839.4
8493, 0, 0.0418359, 0.26127, -0.105923, 0.0489277, 0.105195, 9.87361, 0, -0.0915527, 0.0305176, 26.2816, 90839.8
8503, 0, 0.0388623, 0.247939, -0.105923, 0.0220175, 0.11498, 9.87116, -0.0305176, 0.0610352, 0, 26.2879, 90840.3
8513, 0.00287109, 0.0388623, 0.259629, -0.112178, 0.0366958, 0.117426, 9.86627, 0.0305176, -0.0152588, -0.0610352, 26.2892, 90839.8
8523, 0.00287109, 0.0414258, 0.259629, -0.106743, 0.031803, 0.119873, 9.87116, -0.0915527, 0.0152588, -0.0305176, 26.284, 90839.8
8533, 0.00205078, 0.0401953, 0.247529, -0.115562, 0.0391421, 0.105195, 9.88584, 0.0305176, -0.0610352, 0.0305176, 26.2824, 90839.5
8543, -0.00205078, 0.0397852, 0.257578, -0.107563, 0.0366958, 0.11498, 9.87361, 0.0152588, -0.0762939, -0.0152588, 26.2828, 90840.1
8553, 0.000410156, 0.0392725, 0.247939, -0.113511, 0.0391421, 0.127212, 9.86382, -0.0610352, 0, 0.0152588, 26.2928, 90839.6
8563, 0.00123047, 0.0392725, 0.257168, -0.113511, 0.031803, 0.127212, 9.87605, -0.0457764, 0.0305176, 0, 26.2882, 90839.8
8583, 0.00164062, 0.0392725, 0.24999, -0.110537, 0.0269102, 0.122319, 9.87361, -0.0305176, -0.0152588, 0.0152588, 26.2789, 90839.5
8593, 0.000820312, 0.0464502, 0.255425, -0.108384, 0.0513741, 0.122319, 9.87361, -0.0762939, -0.0305176, -0.0305176, 26.2768, 90839.5
8603, 0.000410156, 0.0397852, 0.255425, -0.113511, 0.0391421, 0.129658, 9.89807, 0.0457764, 0.0305176, -0.0152588, 26.2881, 90840.4
8613, 0.000820312, 0.0438867, 0.252964, -0.113511, 0.031803, 0.11498, 9.86871, -0.0610352, 0.0762939, 0.0305176, 26.29, 90840.1
8623, 0.00123047, 0.0438867, 0.254194, -0.110947, 0.0440349, 0.11498, 9.86871, 0.0305176, 0, 0.0152588, 26.2869, 90839.9
8633, 0.00123047, 0.0401953, 0.254194, -0.110127, 0.0342494, 0.129658, 9.88829, 0.0457764, -0.0152588, 0.0457764, 26.2779, 90840
8643, -0.000410156, 0.0397852, 0.251221, -0.111768, 0.0513741, 0.112534, 9.85893, 0, -0.0152588, 0.0305176, 26.2854, 90839.6
8663, -0.000820312, 0.0442969, 0.247939, -0.110127, 0.0391421, 0.11498, 9.86871, 0, -0.0152588, 0, 26.2826, 90840
8673, 0.00328125, 0.0442969, 0.258398, -0.112998, 0.0415885, 0.132105, 9.8785, -0.0152588, 0.0457764, 0.0305176, 26.2849, 90840.4
8683, 0.00328125, 0.0372217, 0.258398, -0.109307, 0.0513741, 0.122319, 9.87116, -0.0457764, -0.0762939, 0.0152588, 26.296, 90839.8
8693, 0.000820312, 0.0392725, 0.246709, -0.114741, 0.031803, 0.134551, 9.88095, -0.0915527, 0.0457764, 0.0152588, 26.2894, 90839.6
8703, 0.00164062, 0.038042, 0.259629, -0.107153, 0.0342494, 0.134551, 9.86871, -0.0915527, -0.0305176, 0, 26.2841, 90840.3
8713, 0.00328125, 0.0397852, 0.247119, -0.107153, 0.0391421, 0.129658, 9.87361, -0.0305176, -0.0762939, -0.0152588, 26.2842, 90839.8
8723, 0.00123047, 0.0397852, 0.26127, -0.114331, 0.0415885, 0.117426, 9.88829, 0, 0.0457764, 0, 26.2853, 90840.2
8733, 0.00123047, 0.0384521, 0.26127, -0.108896, 0.0244638, 0.129658, 9.87116, 0.0152588, 0.0152588, 0.0457764, 26.2946, 90839.8
8753, 0.00205078, 0.0384521, 0.262603, -0.108384, 0.0269102, 0.107641, 9.86627, 0.0152588, 0.0305176, 0, 26.2737, 90840.6
8763, 0.000820312, 0.0384521, 0.243325, -0.112588, 0.0415885, 0.119873, 9.86137, 0.0305176, -0.106812, 0.0305176, 26.2952, 90839.9
8773, 0, 0.0384521, 0.261782, -0.112588, 0.0244638, 0.112534, 9.84425, -0.0305176, 0.0152588, 0, 26.2882, 90840
8783, 0.00164062, 0.0368115, 0.261782, -0.106743, 0.0464813, 0.107641, 9.88095, -0.0305176, -0.0152588, 0.0152588, 26.2797, 90840.1
8793, 0.00164062, 0.0426563, 0.244966, -0.115562, 0.0391421, 0.107641, 9.88095, -0.0152588, 0.0305176, 0.0457764, 26.2942, 90839.9
8803, 0.000820312, 0.0392725, 0.263833, -0.107153, 0.0269102, 0.119873, 9.83936, 0.0762939, -0.0457764, -0.0152588, 26.286, 90840.4
8813, 0, 0.0414258, 0.244556, -0.115562, 0.0513741, 0.112534, 9.86382, 0.0152588, 0.152588, 0.0152588, 26.2887, 90839.6
8833, 0.00287109, 0.0376318, 0.244145, -0.105513, 0.031803, 0.129658, 9.86137, -0.0457764, 0.0305176, 0.0152588, 26.2982, 90840.4
8843, 0.00287109, 0.0406055, 0.244145, -0.116382, 0.0220175, 0.117426, 9.8785, -0.0305176, 0.0305176, -0.0152588, 26.2921, 90840.4
8853, 0.000820312, 0.0401953, 0.259219, -0.107563, 0.0220175, 0.119873, 9.8785, 0.0152588, -0.0305176, 0.0610352, 26.291, 90840.1
8863, 0.00205078, 0.0401953, 0.246196, -0.115562, 0.0440349, 0.124766, 9.86382, 0.0152588, 0.0305176, 0.0610352, 26.2872, 90840.2
8873, 0.00205078, 0.0401953, 0.26127, -0.115562, 0.0391421, 0.122319, 9.86137, -0.0305176, -0.12207, -0.0610352, 26.278, 90840.1
8883, -0.00123047, 0.0401953, 0.247529, -0.108896, 0.0464813, 0.122319, 9.88584, -0.0152588, 0.0915527, 0.0305176, 26.2846, 90840.3
8893, -0.00123047, 0.0401953, 0.247529, -0.114741, 0.0587132, 0.124766, 9.85159, 0.0305176, -0.0152588, 0.0305176, 26.2826, 90840.2
8903, 0.00123047, 0.0414258, 0.259219, -0.107974, 0.0366958, 0.0978554, 9.86627, -0.0152588, 0.0762939, -0.0152588, 26.2842, 90840.3
8923, 0, 0.0397852, 0.254604, -0.112998, 0.031803, 0.127212, 9.86137, 0.0152588, 0.0305176, -0.0152588, 26.2869, 90840.1
8933, 0, 0.0397852, 0.2504, -0.107974, 0.0415885, 0.127212, 9.86137, -0.0610352, 0.137329, 0.0152588, 26.2856, 90839.8
8943, 0, 0.0376318, 0.2504, -0.112178, 0.0489277, 0.105195, 9.87605, -0.0305176, 0.0305176, -0.0152588, 26.2846, 90840.2
8953, 0.00164062, 0.0401953, 0.255425, -0.109717, 0.0269102, 0.124766, 9.89318, -0.0152588, -0.0152588, -0.0305176, 26.2949, 90840
8963, 0.00123047, 0.0388623, 0.252554, -0.111768, 0.0562668, 0.132105, 9.86382, -0.0610352, -0.0305176, 0.0457764, 26.2892, 90839.7
8973, 0, 0.0430664, 0.254194, -0.108896, 0.0342494, 0.110087, 9.88339, -0.0305176, 0.0457764, 0.0457764, 26.2931, 90840
8983, 0, 0.0430664, 0.252554, -0.108896, 0.0415885, 0.11498, 9.85648, 0.0457764, 0.0610352, -0.0152588, 26.2958, 90839.3
8993, 0.000820312, 0.038042, 0.252554, -0.110947, 0.0342494, 0.134551, 9.86871, -0.0152588, 0.0457764, -0.0152588, 26.2846, 90840.2
9013, -0.000820312, 0.038042, 0.257578, -0.110537, 0.0342494, 0.119873, 9.87361, 0.0152588, -0.0305176, 0.0610352, 26.3007, 90840.3
9023, 0.00123047, 0.0410156, 0.247119, -0.113921, 0.031803, 0.144337, 9.86382, 0.0152588, 0.0915527, 0.0305176, 26.293, 90840
9033, 0.00369141, 0.0406055, 0.257578, -0.113921, 0.0220175, 0.112534, 9.89807, -0.0457764, 0.106812, -0.0152588, 26.2855, 90839.8
9043, 0.000410156, 0.0406055, 0.246709, -0.111357, 0.0342494, 0.110087, 9.86627, 0.0305176, -0.0152588, -0.0152588, 26.2894, 90839.6
9053, 0.000410156, 0.0406055, 0.246709, -0.112998, 0.0489277, 0.105195, 9.86382, -0.0305176, 0.0610352, 0.0305176, 26.2874, 90840
9063, 0.000410156, 0.0414258, 0.258809, -0.108896, 0.0342494, 0.119873, 9.86627, 0, -0.0915527, 0, 26.2932, 90839.8
9073, 0, 0.0384521, 0.244966, -0.112588, 0.0464813, 0.110087, 9.88095, 0, 0.106812, 0.0610352, 26.2878, 90839.9
9093, 0.000820312, 0.038042, 0.243735, -0.108896, 0.0195711, 0.11498, 9.86627, -0.0762939, 0.0762939, 0.0762939, 26.3024, 90839.8
9103, 0.000820312, 0.0392725, 0.243735, -0.113921, 0.0269102, 0.119873, 9.86871, 0.0305176, -0.0305176, 0, 26.2879, 90840
9113, 0, 0.0392725, 0.260039, -0.105923, 0.0269102, 0.132105, 9.8785, -0.0610352, -0.0152588, -0.0305176, 26.29, 90839.5
9123, 0.00502441, 0.0418359, 0.243325, -0.114331, 0.0391421, 0.11498, 9.86137, -0.0915527, -0.0152588, 0, 26.2986, 90839.6
9133, 0.00123047, 0.0372217, 0.263833, -0.114331, 0.0464813, 0.110087, 9.8785, 0, -0.0762939, -0.0457764, 26.2983, 90839.6
9143, -0.00287109, 0.0372217, 0.244145, -0.107153, 0.0391421, 0.139444, 9.86137, -0.0152588, -0.0457764, 0, 26.2911, 90839.5
9153, -0.00287109, 0.0397852, 0.244145, -0.113921, 0.0587132, 0.129658, 9.86382, -0.0457764, 0.0152588, 0.0152588, 26.2936, 90839.8
9163, 0.00205078, 0.0418359, 0.260449, -0.107563, 0.031803, 0.107641, 9.87116, -0.0152588, -0.0152588, -0.0305176, 26.2887, 90839.8
9183, 0.00123047, 0.0410156, 0.261782, -0.105103, 0.0391421, 0.110087, 9.87116, 0.0152588, -0.0915527, -0.0152588, 26.2966, 90840.2
9193, -0.00164062, 0.0410156, 0.243325, -0.105103, 0.0293566, 0.110087, 9.89073, 0.0152588, 0.0305176, 0.0610352, 26.2909, 90840.4
9203, 0, 0.0401953, 0.243325, -0.115562, 0.0366958, 0.105195, 9.88339, 0, 0.0305176, 0.0305176, 26.2841, 90840.1
9213, 0, 0.038042, 0.260039, -0.107563, 0.0244638, 0.11498, 9.86137, -0.0457764, 0.0152588, 0.0305176, 26.3006, 90840
9223, 0.00123047, 0.0397852, 0.247119, -0.116382, 0.031803, 0.110087, 9.88584, -0.0610352, -0.0610352, 0.0457764, 26.2948, 90840.7
9233, 0.00123047, 0.0430664, 0.26127, -0.107563, 0.0391421, 0.127212, 9.88339, 0, -0.0610352, 0.0152588, 26.287, 90839.9
9243, 0.00123047, 0.0430664, 0.246196, -0.107563, 0.0220175, 0.110087, 9.87116, -0.0915527, 0.0762939, -0.0152588, 26.289, 90840.3
9263, 0.000820312, 0.0397852, 0.259219, -0.108896, 0.0293566, 0.112534, 9.88095, -0.0152588, -0.0915527, 0.0762939, 26.2896, 90839.2
9273, 0.00205078, 0.0392725, 0.247119, -0.113921, 0.0440349, 0.124766, 9.86137, 0, -0.0305176, 0.0305176, 26.2887, 90840.8
9283, 0, 0.0410156, 0.257578, -0.109717, 0.031803, 0.132105, 9.88095, -0.0915527, -0.0457764, 0, 26.2903, 90840.1
9293, 0.000820312, 0.0392725, 0.251733, -0.109717, 0.0293566, 0.136998, 9.86871, -0.0457764, 0.0305176, -0.0152588, 26.299, 90840
9303, 0.00205078, 0.0392725, 0.256758, -0.114741, 0.0489277, 0.129658, 9.86137, -0.0152588, 0.0152588, 0.0305176, 26.2947, 90839.9
9313, 0.00205078, 0.0410156, 0.256758, -0.109717, 0.031803, 0.119873, 9.86871, -0.0457764, 0.0152588, 0, 26.3009, 90840.2
9323, 0.00164062, 0.0397852, 0.251221, -0.111768, 0.0391421, 0.124766, 9.86871, -0.0305176, -0.0457764, -0.0457764, 26.2966, 90840
9333, 0, 0.0418359, 0.252964, -0.107974, 0.0464813, 0.107641, 9.85893, -0.0762939, 0, -0.0305176, 26.2886, 90839.6
9353, 0.00410156, 0.0388623, 0.2504, -0.111768, 0.0244638, 0.11498, 9.88584, 0, 0.0457764, -0.0305176, 26.2853, 90839.8
9363, 0.00369141, 0.0422461, 0.2504, -0.110537, 0.0366958, 0.122319, 9.85893, -0.0305176, 0, -0.0305176, 26.2882, 90840.1
9373, 0.00369141, 0.0401953, 0.257578, -0.111768, 0.0293566, 0.110087, 9.86627, -0.0762939, 0.0152588, 0.0457764, 26.3007, 90840
9383, 0.000820312, 0.0426563, 0.2504, -0.112178, 0.0415885, 0.112534, 9.87361, -0.0152588, 0.0457764, -0.0305176, 26.2907, 90840.1
9393, 0.00287109, 0.0397852, 0.257988, -0.110127, 0.0415885, 0.132105, 9.87116, -0.0610352, 0.12207, 0, 26.2911, 90840.1
9403, 0.00328125, 0.0397852, 0.247529, -0.110127, 0.0538205, 0.119873, 9.8785, -0.0762939, 0, 0.0152588, 26.2917, 90840.2
9413, 0.00164062, 0.0388623, 0.247529, -0.109717, 0.0415885, 0.11498, 9.87116, 0, -0.12207, -0.0457764, 26.2934, 90839.7
9433, 0.00205078, 0.0418359, 0.247119, -0.111357, 0.0391421, 0.129658, 9.85893, -0.0457764, 0.0915527, 0.0457764, 26.3025, 90839.2
9443, 0.00205078, 0.0418359, 0.260449, -0.108896, 0.031803, 0.122319, 9.89562, 0.0152588, 0.0762939, 0.0457764, 26.2901, 90839.9
9453, 0.00123047, 0.0418359, 0.243325, -0.108896, 0.0195711, 0.119873, 9.86137, -0.0610352, 0, 0.0305176, 26.282, 90840.3
9463, 0.000820312, 0.0418359, 0.263423, -0.114331, 0.0440349, 0.127212, 9.86627, -0.0457764, -0.0305176, 0.0457764, 26.2869, 90840.2
9473, 0.000820312, 0.0392725, 0.263423, -0.108384, 0.0489277, 0.100302, 9.87361, 0.0152588, 0, -0.0305176, 26.2871, 90840.5
9483, 0.00287109, 0.0410156, 0.243735, -0.112998, 0.031803, 0.129658, 9.87361, 0.0305176, -0.0305176, 0, 26.2909, 90839.6
9493, 0.000410156, 0.0388623, 0.262603, -0.106743, 0.0513741, 0.14189, 9.85893, 0, 0.0610352, 0.0610352, 26.2891, 90839.5
9503, 0.00123047, 0.0392725, 0.242915, -0.106743, 0.0464813, 0.136998, 9.86871, -0.0152588, 0.0915527, 0, 26.3012, 90839.6
9523, 0.000820312, 0.0368115, 0.262603, -0.108896, 0.0391421, 0.127212, 9.85893, -0.106812, 0.0152588, 0.0152588, 26.2887, 90839.5
9533, 0.00205078, 0.0414258, 0.244966, -0.112998, 0.0489277, 0.127212, 9.87116, -0.0610352, 0.0152588, 0, 26.2936, 90840.5
9543, 0.00246094, 0.0418359, 0.262192, -0.106743, 0.0269102, 0.110087, 9.87116, -0.0762939, 0.0152588, 0, 26.2936, 90840.7
9553, 0.00287109, 0.0388623, 0.244966, -0.106743, 0.0366958, 0.124766, 9.86382, -0.0762939, 0, 0.0152588, 26.307, 90840.1
9563, 0.00205078, 0.0388623, 0.260859, -0.116382, 0.0122319, 0.105195, 9.86382, -0.0457764, 0.0762939, -0.0305176, 26.2908, 90840
9573, 0.00123047, 0.0392725, 0.260859, -0.107974, 0.0293566, 0.11498, 9.85893, -0.0305176, 0.0152588, 0.0457764, 26.288, 90840.3
9583, 0.00123047, 0.0397852, 0.246196, -0.117202, 0.0464813, 0.117426, 9.86382, -0.0305176, 0.0152588, 0.0305176, 26.2894, 90839.7
9603, 0.00164062, 0.0406055, 0.247119, -0.110127, 0.0220175, 0.117426, 9.86382, 0, -0.0152588, -0.0305176, 26.2929, 90839.8
9613, -0.00123047, 0.0406055, 0.258809, -0.114331, 0.0269102, 0.122319, 9.86382, 0.0457764, 0, -0.0152588, 26.302, 90840.2
9623, 0.00164062, 0.0430664, 0.258809, -0.107974, 0.0342494, 0.112534, 9.86382, -0.0915527, -0.0305176, 0, 26.2969, 90840.3
9633, 0.00164062, 0.0372217, 0.251221, -0.115972, 0.0391421, 0.119873, 9.88339, -0.0152588, -0.0762939, 0.0152588, 26.2955, 90839.5
9643, 0.000410156, 0.0406055, 0.259629, -0.106333, 0.0391421, 0.132105, 9.87116, -0.106812, -0.0152588, 0.0305176, 26.3075, 90839.5
9653, 0.00164062, 0.0406055, 0.24917, -0.112178, 0.031803, 0.134551, 9.87361, 0.0152588, 0, 0.0152588, 26.2975, 90840.3
9663, 0.000820312, 0.0406055, 0.256245, -0.112178, 0.0415885, 0.110087, 9.87116, 0.0305176, 0, 0.0457764, 26.3037, 90839.9
9673, 0.00246094, 0.0397852, 0.251733, -0.110537, 0.0562668, 0.11498, 9.85893, 0.0152588, 0.0915527, 0.0610352, 26.2932, 90839.4
9693, 0.00123047, 0.0414258, 0.255425, -0.110947, 0.0244638, 0.117426, 9.88095, -0.0762939, 0.0152588, 0.0152588, 26.3002, 90840.3
9703, 0.00164062, 0.0384521, 0.255425, -0.113511, 0.0391421, 0.117426, 9.87361, 0.0610352, 0, 0.0305176, 26.2915, 90839.7
9713, 0.00246094, 0.0414258, 0.254194, -0.113511, 0.0244638, 0.122319, 9.8785, 0.0610352, -0.0457764, -0.0305176, 26.3041, 90839.6
9723, 0.00246094, 0.0414258, 0.256758, -0.111357, 0.0464813, 0.124766, 9.86137, -0.0305176, 0.106812, -0.0305176, 26.2976, 90839.8
9733, 0.00246094, 0.0388623, 0.256758, -0.110947, 0.0464813, 0.117426, 9.88339, 0.0457764, -0.0305176, 0.0305176, 26.278, 90840
9743, 0.00123047, 0.0392725, 0.24917, -0.112588, 0.0269102, 0.119873, 9.8785, -0.0152588, 0.0152588, 0.0305176, 26.3015, 90839.4
9753, 0.00246094, 0.0372217, 0.257988, -0.107974, 0.0513741, 0.117426, 9.85893, 0.0610352, 0.0152588, -0.0457764, 26.2981, 90840.2
9773, 0.00287109, 0.0414258, 0.260039, -0.111357, 0.0489277, 0.127212, 9.86137, -0.0305176, 0.0305176, 0, 26.2907, 90840.2
9783, 0.00328125, 0.0384521, 0.260039, -0.106743, 0.0195711, 0.112534, 9.87116, 0, -0.0610352, 0, 26.2868, 90840.2
9793, 0.00328125, 0.0422461, 0.24876, -0.114331, 0.0244638, 0.127212, 9.87361, -0.0152588, -0.0610352, 0, 26.3, 90839.8
9803, 0.00164062, 0.0401953, 0.264243, -0.107563, 0.031803, 0.11498, 9.87116, -0.0305176, 0, 0.0305176, 26.2916, 90839.8
9813, 0.00246094, 0.0418359, 0.247939, -0.107563, 0.031803, 0.124766, 9.87361, -0.0152588, 0.0762939, -0.0305176, 26.3004, 90840
9823, 0.000820312, 0.0418359, 0.261782, -0.111768, 0.0464813, 0.124766, 9.89073, -0.0457764, -0.0457764, 0.0305176, 26.3015, 90839.7
9833, 0.000820312, 0.0401953, 0.261782, -0.108896, 0.0342494, 0.127212, 9.85648, -0.106812, 0.0152588, -0.0305176, 26.2999, 90840
9843, 0.000820312, 0.0418359, 0.242915, -0.114741, 0.0391421, 0.122319, 9.85893, -0.0610352, 0.0305176, 0.0457764, 26.2921, 90840.2
9863, 0.00164062, 0.0410156, 0.244556, -0.112588, 0.0122319, 0.110087, 9.86137, -0.12207, 0.12207, 0.0457764, 26.2822, 90840
9873, 0.00451172, 0.0410156, 0.263833, -0.112588, 0.0269102, 0.110087, 9.86871, 0.0305176, -0.0305176, -0.0152588, 26.2829, 90839.5
9883, 0.00164062, 0.0388623, 0.244556, -0.106743, 0.0122319, 0.102748, 9.87361, -0.0457764, 0.0305176, 0, 26.302, 90839.6
9893, 0.00164062, 0.0414258, 0.244556, -0.114741, 0.0342494, 0.129658, 9.87361, 0.0457764, 0.0457764, 0.0457764, 26.2794, 90840
9903, 0.00328125, 0.0392725, 0.263423, -0.106743, 0.0220175, 0.122319, 9.86627, 0.0305176, 0.0305176, 0, 26.2956, 90839.4
9913, 0.00123047, 0.0384521, 0.246709, -0.114331, 0.031803, 0.129658, 9.85648, -0.0152588, 0.0152588, -0.0152588, 26.287, 90839.7
9923, 0.00287109, 0.0388623, 0.263833, -0.114331, 0.0391421, 0.122319, 9.87361, -0.0457764, -0.0457764, 0.0610352, 26.2963, 90840
9943, 0.00287109, 0.0397852, 0.244145, -0.115562, 0.0440349, 0.117426, 9.88095, 0, -0.0305176, 0.0457764, 26.2961, 90839.8
9953, 0.000820312, 0.0384521, 0.26127, -0.107974, 0.0342494, 0.124766, 9.86137, -0.0305176, -0.0610352, 0.0457764, 26.2997, 90840
9963, 0.00205078, 0.0414258, 0.246196, -0.116382, 0.0464813, 0.139444, 9.87116, -0.0305176, 0.106812, 0.0457764, 26.2979, 90839.8
9973, -0.000410156, 0.0392725, 0.260449, -0.116382, 0.0220175, 0.11498, 9.86871, -0.0915527, 0, 0, 26.2839, 90839.7
9983, 0.00164062, 0.0392725, 0.247939, -0.106743, 0.031803, 0.112534, 9.87116, 0.0152588, -0.0305176, -0.0305176, 26.2923, 90839.9
9993, 0.00164062, 0.0410156, 0.247939, -0.112178, 0.0440349, 0.127212, 9.85893, -0.0152588, 0, 0.0915527, 26.3022, 90839.8
10003, 0.00164062, 0.0406055, 0.257578, -0.107563, 0.0513741, 0.122319, 9.86871, 0.0305176, 0.0152588, 0.0305176, 26.2934, 90840.1
10013, 0.000410156, 0.0414258, 0.252554, -0.113511, 0.0366958, 0.127212, 9.86871, 0, 0.0457764, 0.0610352, 26.2944, 90840.2
10033, -0.000820312, 0.0422461, 0.252144, -0.108384, 0.0293566, 0.117426, 9.86137, -0.0762939, 0.0915527, 0, 26.2933, 90839.8
10043, 0.00164062, 0.0401953, 0.252144, -0.114331, 0.0293566, 0.110087, 9.85159, 0.0152588, 0.0152588, 0, 26.2946, 90840.3
10053, 0.00164062, 0.0388623, 0.256245, -0.109717, 0.031803, 0.119873, 9.8785, 0.0610352, 0.0915527, 0.0610352, 26.3016, 90839
10063, 0.00164062, 0.0410156, 0.254194, -0.112588, 0.0440349, 0.124766, 9.86382, -0.0915527, -0.0610352, 0.0152588, 26.2959, 90840.2
10073, 0.00328125, 0.0414258, 0.251221, -0.111768, 0.0342494, 0.119873, 9.88095, -0.12207, 0.0152588, -0.0305176, 26.2923, 90839.6
10083, 0.00205078, 0.0414258, 0.254194, -0.111768, 0.031803, 0.136998, 9.86871, -0.0610352, -0.0152588, 0.0152588, 26.2858, 90839.6
10093, 0.000410156, 0.0418359, 0.251221, -0.112998, 0.0220175, 0.110087, 9.85648, -0.0152588, -0.0305176, 0, 26.2865, 90839.8
10113, 0, 0.0414258, 0.257168, -0.112178, 0.0440349, 0.132105, 9.8785, -0.0610352, -0.0915527, -0.0610352, 26.2909, 90839.7
10123, 0.00287109, 0.0422461, 0.24958, -0.113511, 0.031803, 0.105195, 9.86627, -0.0305176, -0.0152588, -0.0152588, 26.2977, 90840.2
10133, 0, 0.0422461, 0.259219, -0.113511, 0.0220175, 0.124766, 9.87116, -0.0457764, -0.0305176, 0.0915527, 26.3004, 90839.5
10143, 0.00246094, 0.0401953, 0.24958, -0.110947, 0.0195711, 0.134551, 9.85893, 0.0762939, -0.0152588, 0.0152588, 26.3006, 90840.3
10153, 0.00246094, 0.0414258, 0.24958, -0.111768, 0.0269102, 0.11498, 9.87361, -0.106812, -0.0152588, -0.0610352, 26.3022, 90840.5
10163, -0.000820312, 0.038042, 0.263013, -0.110947, 0.0391421, 0.112534, 9.86871, -0.0610352, 0.0610352, 0.0152588, 26.3003, 90840.3
10173, 0.00205078, 0.0410156, 0.246196, -0.114741, 0.0391421, 0.112534, 9.87605, 0.0305176, -0.0152588, 0.0457764, 26.2907, 90840.1
10183, 0.000410156, 0.038042, 0.260449, -0.114741, 0.0440349, 0.129658, 9.87361, 0.0152588, -0.0152588, 0.0305176, 26.3074, 90839.5
10203, 0.00287109, 0.0392725, 0.244145, -0.113511, 0.0440349, 0.112534, 9.85404, 0.0152588, -0.0457764, -0.0305176, 26.2991, 90840
10213, 0.00287109, 0.0397852, 0.262192, -0.108384, 0.0513741, 0.11498, 9.88584, -0.0305176, 0.12207, 0.0610352, 26.3104, 90840.2
10223, 0.00123047, 0.0401953, 0.243735, -0.114331, 0.031803, 0.112534, 9.87605, -0.0457764, -0.0457764, -0.0305176, 26.2929, 90839.7
10233, 0.00123047, 0.0397852, 0.263833, -0.114331, 0.0391421, 0.112534, 9.87605, 0, 0.0762939, 0, 26.3038, 90839.7
10243, -0.000410156, 0.0397852, 0.242505, -0.108384, 0.031803, 0.122319, 9.88095, 0, -0.0152588, 0.0305176, 26.2993, 90839.6
10253, 0.000820312, 0.0397852, 0.242505, -0.116792, 0.0464813, 0.127212, 9.87361, -0.106812, -0.0152588, -0.0457764, 26.3036, 90839.8
10263, 0.000820312, 0.0388623, 0.265474, -0.107974, 0.0342494, 0.117426, 9.87361, -0.0457764, -0.0305176, 0.0457764, 26.29, 90839.2
10283, 0.000820312, 0.0384521, 0.26127, -0.105923, 0.0415885, 0.127212, 9.90052, -0.0152588, 0.0152588, 0.0152588, 26.3077, 90839.8
10293, 0.00164062, 0.0384521, 0.245376, -0.105923, 0.0244638, 0.127212, 9.85893, -0.0610352, 0.0610352, 0.0457764, 26.2973, 90839.7
10303, 0.00246094, 0.0418359, 0.264653, -0.114741, 0.0464813, 0.122319, 9.86871, -0.0152588, 0.0305176, -0.0610352, 26.3096, 90839.8
10313, 0.00246094, 0.0397852, 0.264653, -0.107974, 0.0293566, 0.117426, 9.88339, -0.0762939, -0.0152588, -0.0305176, 26.2976, 90839.8
10323, -0.000410156, 0.0426563, 0.246196, -0.118535, 0.031803, 0.107641, 9.89073, 0.0152588, -0.0305176, 0.0152588, 26.2997, 90840
10333, 0.00123047, 0.0401953, 0.26127, -0.111357, 0.031803, 0.124766, 9.88095, -0.0305176, 0.0457764, 0.0152588, 26.3056, 90840.3
10343, 0.000820312, 0.0401953, 0.245786, -0.111357, 0.0464813, 0.110087, 9.87605, -0.0610352, 0.0152588, 0.0152588, 26.3056, 90840
10353, 0.000820312, 0.0418359, 0.257578, -0.114741, 0.0513741, 0.105195, 9.88829, 0.0152588, -0.0305176, 0.0152588, 26.2956, 90839.7
10373, 0.00164062, 0.0388623, 0.24917, -0.115972, 0.0293566, 0.14189, 9.85893, -0.0762939, 0, 0.0305176, 26.3023, 90840.1
10383, 0.00164062, 0.0401953, 0.259629, -0.107563, 0.031803, 0.127212, 9.88339, -0.0762939, 0.0152588, 0.0457764, 26.3054, 90840
10393, 0.00410156, 0.0406055, 0.2504, -0.107563, 0.0513741, 0.134551, 9.89073, -0.0305176, 0.0152588, 0, 26.3041, 90839.9
10403, -0.00123047, 0.0406055, 0.253374, -0.114331, 0.0366958, 0.134551, 9.86382, -0.0152588, -0.0305176, -0.0152588, 26.2931, 90840.4
10413, 0.00164062, 0.0422461, 0.253374, -0.108896, 0.0293566, 0.11498, 9.8785, -0.0305176, -0.0305176, 0.0457764, 26.2976, 90839.7
10423, 0.00164062, 0.0388623, 0.252144, -0.110537, 0.0342494, 0.11498, 9.86137, 0.0305176, -0.0305176, -0.0152588, 26.2969, 90840
10433, 0, 0.0392725, 0.254194, -0.108384, 0.0293566, 0.112534, 9.8785, -0.0457764, 0, -0.0762939, 26.2961, 90840.4
10443, -0.00123047, 0.038042, 0.255425, -0.108384, 0.0489277, 0.100302, 9.87361, -0.0152588, -0.0305176, 0.0610352, 26.3119, 90839.6
10463, 0.00164062, 0.0418359, 0.252144, -0.112178, 0.0391421, 0.127212, 9.87605, -0.12207, -0.0305176, 0.0457764, 26.3192, 90839.8
10473, 0.00164062, 0.0397852, 0.256758, -0.110947, 0.0391421, 0.119873, 9.86871, 0.0305176, 0, -0.0152588, 26.3101, 90839.5
10483, 0.00123047, 0.0410156, 0.24876, -0.112178, 0.0220175, 0.100302, 9.86137, -0.0915527, 0.0152588, 0.0457764, 26.3212, 90839.9
10493, 0.00205078, 0.0388623, 0.260039, -0.112178, 0.0342494, 0.122319, 9.8467, -0.0610352, -0.0457764, 0.0152588, 26.3132, 90839.9
10503, 0.00369141, 0.0388623, 0.247529, -0.112178, 0.0366958, 0.110087, 9.89807, -0.0457764, 0.0762939, -0.0152588, 26.3036, 90840.2
10513, 0.00246094, 0.0397852, 0.262192, -0.113511, 0.0464813, 0.134551, 9.86382, -0.0610352, 0.0915527, 0.0762939, 26.3046, 90839.7
10523, 0.00246094, 0.0388623, 0.262192, -0.110537, 0.0391421, 0.122319, 9.86137, 0.0305176, 0.0457764, 0.0305176, 26.3105, 90839.5
10543, 0, 0.0372217, 0.260039, -0.110537, 0.031803, 0.122319, 9.86627, -0.0305176, 0.0610352, 0.0152588, 26.2979, 90839.6
10553, 0.00164062, 0.0372217, 0.244145, -0.110537, 0.0146783, 0.127212, 9.86627, -0.0305176, 0, -0.0610352, 26.3024, 90840.4
10563, 0.00205078, 0.0414258, 0.262603, -0.114741, 0.0342494, 0.129658, 9.86871, -0.0762939, -0.0915527, 0.0305176, 26.2913, 90839.7
10573, 0.000410156, 0.0384521, 0.262603, -0.107563, 0.0293566, 0.112534, 9.87605, -0.0610352, 0, 0.0610352, 26.3002, 90840
10583, 0.000410156, 0.0418359, 0.244556, -0.115972, 0.0513741, 0.117426, 9.85893, -0.0457764, -0.0152588, 0.0152588, 26.3011, 90839.7
10593, 0, 0.0397852, 0.264653, -0.107563, 0.0440349, 0.132105, 9.86627, -0.0152588, 0.0762939, 0.0152588, 26.3034, 90839.9
10603, 0.00123047, 0.0422461, 0.242505, -0.107563, 0.0293566, 0.119873, 9.88339, -0.0152588, 0.0457764, -0.0457764, 26.3041, 90839.8
10613, 0.000410156, 0.0422461, 0.264243, -0.115972, 0.031803, 0.127212, 9.86382, 0.0152588, 0.0305176, -0.0457764, 26.3085, 90839.3
10633, 0.00164062, 0.0414258, 0.244966, -0.114741, 0.031803, 0.119873, 9.89073, 0.0305176, -0.12207, 0.0457764, 26.2946, 90839.7
10643, -0.000410156, 0.0406055, 0.263013, -0.107974, 0.0366958, 0.129658, 9.86137, -0.0457764, -0.0152588, 0.0610352, 26.2909, 90840
10653, 0.000410156, 0.0418359, 0.246196, -0.107974, 0.0269102, 0.124766, 9.88095, -0.0305176, 0, 0.0152588, 26.3047, 90840
10663, 0.000410156, 0.0418359, 0.260039, -0.113511, 0.0489277, 0.117426, 9.86871, 0.0305176, 0, -0.0152588, 26.3096, 90839.7
10673, -0.00123047, 0.0410156, 0.260039, -0.107563, 0.0171247, 0.124766, 9.85648, -0.0152588, 0.0762939, 0.0762939, 26.3105, 90839.8
10683, -0.00123047, 0.0392725, 0.245786, -0.116792, 0.0440349, 0.122319, 9.88584, 0.0305176, 0.0305176, 0.0610352, 26.308, 90839.5
10693, 0.00164062, 0.0388623, 0.261782, -0.107563, 0.0244638, 0.117426, 9.87361, 0.0305176, 0, 0.0305176, 26.306, 90839.6
10713, 0.00205078, 0.0418359, 0.260039, -0.115972, 0.0513741, 0.124766, 9.88584, 0, 0.0152588, 0.0305176, 26.3009, 90839.7
10723, 0.000820312, 0.0406055, 0.247939, -0.108384, 0.0366958, 0.122319, 9.88829, -0.0457764, -0.0915527, 0.0305176, 26.303, 90839.6
10733, 0.000820312, 0.0406055, 0.247939, -0.116792, 0.0293566, 0.134551, 9.85404, -0.0610352, 0.0610352, 0.0610352, 26.3084, 90839.7
10743, 0.00543457, 0.0388623, 0.257988, -0.107974, 0.0146783, 0.136998, 9.86137, -0.0152588, 0.0762939, 0.0305176, 26.2995, 90839.5
10753, 0.00164062, 0.0401953, 0.24917, -0.114741, 0.0415885, 0.129658, 9.89073, -0.0762939, -0.0152588, 0.0457764, 26.2989, 90839.5
10763, -0.000820312, 0.0401953, 0.253784, -0.114741, 0.0489277, 0.127212, 9.86137, -0.0305176, -0.0305176, -0.0152588, 26.3075, 90839.5
10773, 0.000410156, 0.038042, 0.253374, -0.108384, 0.0415885, 0.136998, 9.87361, -0.0152588, 0.0152588, -0.0457764, 26.3059, 90839.7
10783, 0.00246094, 0.0406055, 0.253374, -0.110947, 0.0342494, 0.124766, 9.87361, 0.0305176, -0.0305176, -0.0152588, 26.3029, 90840.2
10803, 0.00164062, 0.0392725, 0.254194, -0.112588, 0.0415885, 0.110087, 9.88339, 0.0152588, -0.0457764, 0.0457764, 26.2996, 90840
10813, 0.000820312, 0.0392725, 0.2504, -0.112588, 0.0342494, 0.110087, 9.87116, 0.0457764, -0.0305176, -0.0305176, 26.3, 90839.9
10823, 0.00205078, 0.0410156, 0.257578, -0.109717, 0.0342494, 0.122319, 9.86627, -0.0305176, 0.0762939, 0.0457764, 26.3006, 90839.6
10833, 0.000820312, 0.0397852, 0.257578, -0.109717, 0.0440349, 0.107641, 9.88339, -0.0610352, 0, 0.0305176, 26.3085, 90840.2
10843, 0.000820312, 0.0422461, 0.24876, -0.110127, 0.0489277, 0.100302, 9.85159, 0, -0.0915527, -0.0152588, 26.2958, 90839.3
10853, 0.00246094, 0.0397852, 0.257988, -0.112998, 0.0342494, 0.105195, 9.86871, -0.0152588, -0.0152588, -0.0305176, 26.3054, 90839.2
10863, 0.00123047, 0.0426563, 0.245376, -0.112998, 0.0293566, 0.129658, 9.88095, -0.0152588, 0.12207, -0.0305176, 26.3052, 90840.3
10883, 0.00164062, 0.0410156, 0.260039, -0.110127, 0.0342494, 0.107641, 9.86382, -0.0610352, 0, 0, 26.2992, 90840.1
10893, 0.00164062, 0.0410156, 0.246196, -0.112588, 0.0415885, 0.127212, 9.87361, -0.0762939, -0.0152588, 0.0305176, 26.2973, 90839.9
10903, 0.00123047, 0.0372217, 0.260859, -0.109717, 0.0489277, 0.127212, 9.87361, -0.0610352, -0.0762939, -0.0152588, 26.2966, 90839.5
10913, 0.00369141, 0.0418359, 0.245786, -0.113921, 0.0220175, 0.110087, 9.8785, -0.0152588, -0.0457764, 0.0152588, 26.3044, 90840.1
10923, 0, 0.0418359, 0.262192, -0.113921, 0.0244638, 0.122319, 9.85648, 0, 0.0457764, 0.0305176, 26.2945, 90840.5
10933, -0.000410156, 0.0406055, 0.246196, -0.107153, 0.0342494, 0.117426, 9.87605, 0.0610352, 0.0457764, 0.0305176, 26.3106, 90839.7
10943, -0.000410156, 0.0414258, 0.246196, -0.112998, 0.0464813, 0.136998, 9.88095, 0.0152588, 0, 0, 26.3079, 90840.3
10953, 0, 0.0392725, 0.262603, -0.106333, 0.0391421, 0.110087, 9.86627, -0.0305176, 0.0457764, 0.0152588, 26.3086, 90839.7
10973, 0.00164062, 0.0422461, 0.260449, -0.114331, 0.0489277, 0.100302, 9.88095, -0.0762939, 0.0305176, 0.0305176, 26.3095, 90840.3
10983, 0.00164062, 0.0401953, 0.245786, -0.106743, 0.0244638, 0.119873, 9.86137, -0.0305176, 0.0915527, 0.0152588, 26.2989, 90839.8
10993, 0.000410156, 0.0418359, 0.245786, -0.113511, 0.0269102, 0.117426, 9.87605, -0.0152588, -0.0152588, 0.0152588, 26.3022, 90840.1
11003, 0.000410156, 0.0397852, 0.260859, -0.106333, 0.031803, 0.11498, 9.87605, -0.0152588, 0.0305176, 0.0305176, 26.3066, 90839.9
11013, 0.000410156, 0.0426563, 0.245376, -0.113511, 0.0171247, 0.134551, 9.84425, -0.0610352, -0.0457764, 0.0152588, 26.2991, 90840.2
11023, 0.00205078, 0.0426563, 0.262603, -0.113511, 0.0391421, 0.11498, 9.88095, -0.0305176, 0.0610352, -0.0152588, 26.2992, 90839.8
11033, 0.000410156, 0.0401953, 0.245376, -0.105513, 0.0171247, 0.124766, 9.87361, 0.0305176, 0.0152588, 0.0152588, 26.2903, 90839.4
11053, 0.00246094, 0.0414258, 0.259629, -0.108896, 0.0342494, 0.117426, 9.86871, 0, 0.0457764, 0.0152588, 26.3002, 90839.8
11063, 0.000820312, 0.0426563, 0.246196, -0.114741, 0.0269102, 0.112534, 9.88584, 0.0152588, -0.0152588, -0.0152588, 26.3021, 90839.9
11073, 0.00205078, 0.0422461, 0.257988, -0.114741, 0.0415885, 0.110087, 9.85648, -0.0457764, -0.0610352, 0.0152588, 26.2949, 90839.3
11083, 0.000820312, 0.0422461, 0.24876, -0.107153, 0.0244638, 0.11498, 9.86871, -0.0457764, 0.0457764, 0.0305176, 26.2987, 90840.3
11093, 0, 0.0406055, 0.24876, -0.115972, 0.0171247, 0.112534, 9.89318, -0.0457764, -0.0305176, 0.0305176, 26.2936, 90840.1
11103, 0, 0.0392725, 0.256245, -0.107563, 0.0366958, 0.117426, 9.8785, -0.0152588, 0, 0, 26.3055, 90840
11113, 0.000410156, 0.0414258, 0.251733, -0.112998, 0.0440349, 0.124766, 9.88095, 0, -0.0305176, 0, 26.3074, 90839.2
11123, 0.00123047, 0.0422461, 0.255425, -0.108384, 0.0293566, 0.110087, 9.88095, -0.0610352, 0.137329, -0.0305176, 26.3102, 90840.3
11143, -0.00164062, 0.0392725, 0.255015, -0.111768, 0.0391421, 0.117426, 9.86137, -0.0457764, 0.0305176, 0.0457764, 26.3076, 90839.8
11153, 0.00369141, 0.0392725, 0.255015, -0.109307, 0.0366958, 0.11498, 9.87116, -0.0915527, -0.0457764, 0.0305176, 26.3118, 90839.4
11163, 0.00369141, 0.0392725, 0.252964, -0.114331, 0.0440349, 0.11498, 9.87361, -0.0305176, -0.0305176, 0.0152588, 26.3021, 90840.2
11173, -0.000820312, 0.0397852, 0.250811, -0.110947, 0.0366958, 0.117426, 9.85893, 0.0305176, 0.0457764, 0, 26.3063, 90839.7
11183, -0.000820312, 0.0397852, 0.257578, -0.110947, 0.0415885, 0.107641, 9.87605, -0.0610352, 0.0152588, 0.0305176, 26.2994, 90840
11193, 0, 0.0406055, 0.24917, -0.114331, 0.0366958, 0.11498, 9.8785, -0.0610352, -0.0305176, 0, 26.2902, 90840
11203, 0.000820312, 0.0434766, 0.24917, -0.112178, 0.0464813, 0.134551, 9.86137, -0.0915527, 0.0152588, 0.0152588, 26.3131, 90839.8
11223, 0.000410156, 0.0397852, 0.247939, -0.111357, 0.0293566, 0.122319, 9.87361, -0.0457764, 0.0610352, -0.0305176, 26.2992, 90839.5
11233, 0.000820312, 0.0397852, 0.258398, -0.111357, 0.0244638, 0.112534, 9.87605, -0.0152588, -0.0305176, -0.0305176, 26.3048, 90839.9
11243, 0.00123047, 0.0388623, 0.244966, -0.111357, 0.0366958, 0.122319, 9.87116, 0.0305176, 0.0152588, 0.0457764, 26.3095, 90839.5
11253, 0.000410156, 0.0392725, 0.244966, -0.113511, 0.0415885, 0.122319, 9.87605, 0.0305176, -0.0152588, -0.0152588, 26.2924, 90840.4
11263, 0.000410156, 0.0406055, 0.26127, -0.110537, 0.0391421, 0.110087, 9.86137, -0.0762939, -0.0457764, 0.0152588, 26.3092, 90839.6
11273, 0.00205078, 0.0392725, 0.244966, -0.113511, 0.0342494, 0.127212, 9.85893, -0.0152588, -0.0305176, 0.0762939, 26.3019, 90839.8
11283, 0.00164062, 0.038042, 0.261782, -0.113511, 0.0342494, 0.117426, 9.87605, -0.0762939, 0.0152588, 0.0457764, 26.3033, 90839.6
11293, 0.000820312, 0.038042, 0.246709, -0.108384, 0.0391421, 0.127212, 9.87605, -0.0305176, 0.0305176, 0.0762939, 26.3005, 90839.8
11313, 0.00164062, 0.0392725, 0.263013, -0.107153, 0.0244638, 0.117426, 9.88339, 0.0152588, 0.106812, 0.0762939, 26.3078, 90840.2
11323, 0.00287109, 0.0422461, 0.245786, -0.113921, 0.0415885, 0.119873, 9.8785, -0.0457764, 0.0152588, 0.0152588, 26.3053, 90839.9
11333, -0.000410156, 0.0410156, 0.262192, -0.113921, 0.0244638, 0.102748, 9.88339, 0, -0.0915527, -0.0152588, 26.3064, 90839.3
11343, 0.000410156, 0.0410156, 0.246709, -0.107974, 0.0489277, 0.117426, 9.86871, 0.0457764, 0, 0, 26.2992, 90839.2
11353, 0.00410156, 0.0418359, 0.26127, -0.114331, 0.0391421, 0.132105, 9.85893, 0.0457764, 0.0152588, -0.0305176, 26.3083, 90840.1
11363, 0.00246094, 0.0388623, 0.26127, -0.107974, 0.0342494, 0.127212, 9.87116, 0, 0.0762939, -0.0152588, 26.307, 90839.4
11373, 0.00246094, 0.0414258, 0.242505, -0.115151, 0.0415885, 0.119873, 9.87605, -0.0762939, 0.0305176, 0.0152588, 26.3107, 90839.4
11393, -0.000820312, 0.0406055, 0.245786, -0.106743, 0.0342494, 0.124766, 9.85893, -0.0152588, 0.0457764, -0.0457764, 26.3135, 90839.4
11403, -0.000410156, 0.0392725, 0.260039, -0.113921, 0.0244638, 0.11498, 9.88095, -0.0152588, 0.0457764, -0.0610352, 26.3074, 90839.7
11413, 0.00164062, 0.0401953, 0.260039, -0.105513, 0.0293566, 0.105195, 9.86871, 0.0305176, -0.0457764, -0.0457764, 26.3092, 90840
11423, 0.00164062, 0.0414258, 0.247529, -0.113921, 0.0244638, 0.127212, 9.85893, -0.0305176, 0.0305176, -0.0457764, 26.3126, 90839.8
11433, 0.00246094, 0.0388623, 0.259629, -0.107153, 0.0440349, 0.129658, 9.87605, -0.0457764, -0.137329, 0, 26.3097, 90839.2
11443, 0.00328125, 0.0388623, 0.247529, -0.107153, 0.0464813, 0.132105, 9.87605, -0.0610352, 0.0457764, 0.0457764, 26.3038, 90839.9
11453, 0.000410156, 0.0418359, 0.256245, -0.112998, 0.0342494, 0.112534, 9.86871, -0.0152588, 0.0762939, 0, 26.3041, 90839.8
11463, 0.00164062, 0.0397852, 0.256245, -0.106333, 0.0415885, 0.11498, 9.8785, 0, 0.0610352, 0.0305176, 26.31, 90840.2
11483, 0.00205078, 0.0406055, 0.255015, -0.106743, 0.0366958, 0.117426, 9.86871, -0.0305176, 0, 0.0610352, 26.3135, 90839.4
11493, 0.00205078, 0.0406055, 0.24917, -0.106743, 0.0244638, 0.119873, 9.86627, -0.0915527, 0.0457764, 0.0152588, 26.32, 90839.8
11503, 0.000820312, 0.0397852, 0.252144, -0.112178, 0.0195711, 0.119873, 9.88095, -0.0762939, 0.0457764, 0.0152588, 26.3055, 90840.1
11513, 0.00246094, 0.0410156, 0.252144, -0.107153, 0.0366958, 0.100302, 9.8785, -0.0457764, -0.0610352, 0.0305176, 26.3053, 90839.2
11523, 0.00246094, 0.0392725, 0.252144, -0.113921, 0.0513741, 0.127212, 9.87605, 0.0457764, 0.0152588, 0, 26.3112, 90839.9
11533, 0.00205078, 0.0430664, 0.251221, -0.108896, 0.0415885, 0.129658, 9.89073, -0.0152588, 0.0610352, -0.0152588, 26.314, 90839.6
11543, 0.000410156, 0.0388623, 0.255015, -0.108896, 0.0244638, 0.127212, 9.86382, -0.0152588, 0.0152588, -0.0305176, 26.3026, 90840.8
11563, 0.00543457, 0.0410156, 0.256245, -0.107153, 0.031803, 0.11498, 9.87605, 0.0457764, -0.0610352, 0.0762939, 26.3063, 90840.2
11573, 0.00123047, 0.0376318, 0.256245, -0.112588, 0.0342494, 0.110087, 9.88339, -0.0305176, 0.0915527, -0.0152588, 26.3006, 90840
11583, 0.00123047, 0.0410156, 0.245376, -0.112588, 0.0269102, 0.127212, 9.86137, 0.0457764, -0.0305176, -0.0152588, 26.3151, 90839.8
11593, 0.00164062, 0.0384521, 0.257168, -0.110947, 0.031803, 0.107641, 9.88095, 0, 0.0457764, -0.0457764, 26.3101, 90839.6
11603, 0.000410156, 0.0384521, 0.244556, -0.110947, 0.0513741, 0.100302, 9.86382, -0.0762939, 0.0457764, 0.0152588, 26.3049, 90840.2
11613, -0.000820312, 0.0430664, 0.260039, -0.111357, 0.0415885, 0.132105, 9.86871, -0.0305176, -0.0305176, 0, 26.3027, 90839.7
11623, 0.00164062, 0.0406055, 0.260039, -0.108896, 0.0538205, 0.127212, 9.87605, -0.0457764, 0.0457764, 0.0305176, 26.3024, 90840.1
11633, 0.00164062, 0.0410156, 0.243735, -0.112178, 0.0464813, 0.110087, 9.87361, 0, 0, 0.0762939, 26.3002, 90839.9
11653, 0.00164062, 0.0397852, 0.243325, -0.108384, 0.0244638, 0.112534, 9.87116, -0.12207, 0, -0.0457764, 26.3126, 90839.9
11663, -0.000410156, 0.0406055, 0.260449, -0.112998, 0.0146783, 0.110087, 9.89318, 0.0152588, -0.0762939, 0.0152588, 26.3107, 90839.6
11673, 0.000820312, 0.0401953, 0.260449, -0.105923, 0.0342494, 0.112534, 9.87605, 0.0152588, 0.0762939, 0, 26.3134, 90840.2
11683, 0.000820312, 0.0410156, 0.242095, -0.111357, 0.0391421, 0.119873, 9.86382, 0.0305176, -0.0457764, 0.0762939, 26.31, 90840.4
11693, 0.00164062, 0.0388623, 0.263423, -0.109717, 0.0293566, 0.110087, 9.88339, 0, 0.0305176, 0.0457764, 26.3219, 90840.5
11703, 0.00287109, 0.0388623, 0.242915, -0.109717, 0.0562668, 0.127212, 9.85159, -0.0610352, 0.0457764, 0, 26.309, 90839.6
11713, 0.000820312, 0.0418359, 0.263013, -0.113921, 0.0293566, 0.105195, 9.87116, -0.0152588, 0.0610352, -0.0152588, 26.3089, 90840
11733, -0.000410156, 0.0401953, 0.243735, -0.112998, 0.0220175, 0.136998, 9.85893, 0, 0.0762939, 0.0152588, 26.2997, 90839.4
11743, 0.00123047, 0.0388623, 0.261782, -0.109717, 0.0269102, 0.119873, 9.87605, -0.0457764, 0.0610352, -0.0152588, 26.3152, 90839.2
11753, 0.00246094, 0.0414258, 0.245786, -0.109717, 0.0342494, 0.124766, 9.86627, 0, -0.0152588, 0, 26.3079, 90839.9
11763, 0.000410156, 0.0414258, 0.262192, -0.112178, 0.0366958, 0.129658, 9.86137, -0.0152588, 0, 0.0152588, 26.315, 90840.4
11773, 0.00328125, 0.0401953, 0.262192, -0.106333, 0.0489277, 0.134551, 9.88339, -0.0762939, 0.0915527, -0.0457764, 26.3145, 90840.2
11783, -0.000410156, 0.0430664, 0.247939, -0.114741, 0.031803, 0.127212, 9.88584, 0, -0.0457764, -0.0610352, 26.3109, 90840.2
11793, -0.000410156, 0.0410156, 0.256245, -0.106743, 0.0366958, 0.129658, 9.87116, 0.0152588, 0, -0.0152588, 26.3136, 90840.4
11803, 0.00164062, 0.0418359, 0.244556, -0.113921, 0.0244638, 0.117426, 9.85893, 0, 0.0457764, 0, 26.3104, 90840.5
11823, 0.000410156, 0.0406055, 0.252144, -0.106743, 0.0415885, 0.122319, 9.85648, -0.0152588, 0, 0.0610352, 26.3092, 90839.9
11833, 0.00123047, 0.0414258, 0.252144, -0.115562, 0.0440349, 0.129658, 9.85648, 0.0457764, 0.0762939, 0.0152588, 26.3055, 90839.9
11843, 0.00123047, 0.0418359, 0.253784, -0.107153, 0.0415885, 0.132105, 9.86871, 0, -0.0305176, 0, 26.3056, 90840.1
11853, 0.00369141, 0.0397852, 0.24917, -0.114331, 0.0391421, 0.122319, 9.87361, -0.0457764, -0.0152588, 0, 26.3125, 90839.8
11863, 0, 0.0397852, 0.253374, -0.114331, 0.031803, 0.112534, 9.86871, -0.0152588, 0.0610352, -0.0305176, 26.3121, 90840.2
11873, 0, 0.0410156, 0.251221, -0.109717, 0.0415885, 0.112534, 9.88095, -0.0305176, 0.0457764, 0.0762939, 26.3049, 90840.1
11883, 0.00287109, 0.0410156, 0.251221, -0.111768, 0.0293566, 0.11498, 9.88584, 0.0457764, 0.0915527, -0.0152588, 26.3055, 90840.1
11893, 0.00287109, 0.0414258, 0.252144, -0.108896, 0.031803, 0.122319, 9.87605, 0.0305176, -0.0152588, -0.0610352, 26.3066, 90840.1
11913, 0, 0.0410156, 0.2504, -0.113511, 0.0489277, 0.107641, 9.87361, -0.0152588, 0.0457764, -0.0305176, 26.3082, 90840.1
11923, 0.00164062, 0.038042, 0.256758, -0.110537, 0.0489277, 0.124766, 9.86871, -0.0762939, -0.0152588, -0.0305176, 26.2981, 90840
11933, 0.00328125, 0.0384521, 0.256758, -0.111357, 0.0293566, 0.134551, 9.86871, -0.0457764, 0, -0.0152588, 26.3202, 90840.7
11943, 0.00328125, 0.0397852, 0.24876, -0.112178, 0.0293566, 0.11498, 9.88095, 0.0152588, 0.0610352, 0.0305176, 26.3037, 90839.9
11953, 0.00410156, 0.0388623, 0.259629, -0.109717, 0.0293566, 0.119873, 9.8785, -0.0305176, 0.0457764, 0, 26.3141, 90840.3
11963, 0.00287109, 0.0426563, 0.246709, -0.109717, 0.0440349, 0.117426, 9.87116, 0.0457764, 0.0457764, -0.0305176, 26.31, 90839.9
11973, 0.00287109, 0.0426563, 0.26127, -0.110127, 0.0440349, 0.124766, 9.88095, -0.0152588, -0.0457764, -0.0457764, 26.3028, 90840
11993, 0.000410156, 0.0397852, 0.263013, -0.107563, 0.031803, 0.129658, 9.87361, 0.0305176, 0, 0.0152588, 26.3082, 90839.4
12043, -0.000410156, 0.0422461, 0.242095, -0.112588, 0.0244638, 0.132105, 9.86137, -0.0305176, -0.0152588, 0.0152588, 26.3198, 90839.9
12053, -0.000410156, 0.0388623, 0.262603, -0.106743, 0.0195711, 0.117426, 9.89073, -0.0610352, -0.0152588, 0.0610352, 26.3088, 90840.1
12063, 0.00164062, 0.0418359, 0.244556, -0.114331, 0.0220175, 0.122319, 9.88584, 0.0152588, -0.0457764, 0.0152588, 26.3041, 90839.9
12073, 0.00205078, 0.0418359, 0.261782, -0.114331, 0.031803, 0.11498, 9.85159, 0.0610352, 0.0305176, 0.0762939, 26.3061, 90840.5
12083, 0.000410156, 0.0410156, 0.242505, -0.106333, 0.031803, 0.122319, 9.88339, -0.0457764, -0.0610352, 0.0457764, 26.3154, 90840.5
12093, 0.000820312, 0.0406055, 0.242505, -0.112998, 0.0293566, 0.112534, 9.88095, -0.0305176, 0, 0, 26.3125, 90840.3
12103, 0.000820312, 0.0388623, 0.262192, -0.107563, 0.0342494, 0.095409, 9.86382, -0.0610352, 0.0457764, 0, 26.3064, 90839.8
12123, 0.00205078, 0.0401953, 0.26127, -0.112588, 0.0366958, 0.122319, 9.88339, -0.0305176, 0, -0.0152588, 26.304, 90840.1
12133, 0, 0.0388623, 0.244145, -0.107563, 0.0366958, 0.119873, 9.86382, 0, -0.0305176, -0.0305176, 26.3144, 90839.9
12143, 0.00123047, 0.0392725, 0.244145, -0.116792, 0.0366958, 0.107641, 9.86627, 0, -0.0305176, 0, 26.302, 90840
12153, 0.00205078, 0.0401953, 0.258809, -0.107153, 0.0513741, 0.124766, 9.85404, -0.106812, 0.0152588, 0, 26.304, 90839.8
12163, 0.00205078, 0.0414258, 0.247119, -0.113921, 0.0391421, 0.119873, 9.87361, -0.0457764, -0.12207, 0.0305176, 26.3022, 90840.4
12173, 0.00164062, 0.0414258, 0.259219, -0.113921, 0.0293566, 0.127212, 9.87361, -0.0762939, 0, 0.0305176, 26.3036, 90840.5
12183, 0.00328125, 0.0401953, 0.24876, -0.105923, 0.031803, 0.119873, 9.8418, 0.0305176, -0.0762939, -0.0457764, 26.3163, 90840.3
12193, 0.00164062, 0.0410156, 0.24876, -0.113511, 0.0366958, 0.119873, 9.86382, 0, 0, -0.0457764, 26.3143, 90839.6
12213, 0.00164062, 0.0418359, 0.2504, -0.114741, 0.031803, 0.124766, 9.8785, 0, 0.0915527, -0.0152588, 26.3082, 90839.9
12223, 0.000820312, 0.0397852, 0.252964, -0.107153, 0.0244638, 0.117426, 9.85404, -0.0305176, 0.0457764, 0.0152588, 26.3161, 90839.5
12233, 0.00123047, 0.0397852, 0.251733, -0.107153, 0.0464813, 0.124766, 9.86871, 0.0610352, -0.0457764, -0.0457764, 26.3107, 90840.5
12243, -0.000410156, 0.0410156, 0.254604, -0.112178, 0.0464813, 0.119873, 9.86871, -0.0610352, 0, -0.0457764, 26.3027, 90840
12253, 0.00287109, 0.0410156, 0.254604, -0.107974, 0.0391421, 0.117426, 9.88584, -0.0152588, 0, 0.0305176, 26.3036, 90840.3
12263, 0.00287109, 0.0388623, 0.254194, -0.111768, 0.0220175, 0.127212, 9.88095, 0, 0, 0, 26.319, 90840
12273, 0.00246094, 0.0418359, 0.24958, -0.107563, 0.0293566, 0.129658, 9.85159, -0.0152588, 0.0762939, -0.0152588, 26.3123, 90839.5
12293, 0.00205078, 0.0392725, 0.245786, -0.111357, 0.0415885, 0.112534, 9.8785, -0.0305176, 0, 0.0305176, 26.3113, 90840.5
12303, 0.00246094, 0.0397852, 0.245786, -0.111357, 0.0489277, 0.117426, 9.86382, -0.0762939, -0.0305176, 0.0152588, 26.309, 90839.9
12313, 0.00246094, 0.0414258, 0.258398, -0.110127, 0.0269102, 0.112534, 9.87361, -0.0152588, 0.12207, 0.0457764, 26.313, 90840.1
12323, 0, 0.0422461, 0.243325, -0.111357, 0.0391421, 0.107641, 9.87605, 0, -0.0457764, 0.0457764, 26.3186, 90840.5
12333, 0, 0.0422461, 0.260039, -0.111357, 0.0293566, 0.119873, 9.86137, 0.0152588, 0.0305176, 0, 26.3096, 90839.8
12343, 0, 0.0388623, 0.244556, -0.107153, 0.0269102, 0.134551, 9.87361, -0.0305176, 0.0762939, 0.0152588, 26.3061, 90840
12353, 0.00205078, 0.0401953, 0.244556, -0.111768, 0.0342494, 0.102748, 9.86871, -0.0305176, 0.0305176, 0.0305176, 26.3181, 90840
12363, 0.00123047, 0.0388623, 0.259219, -0.108896, 0.0415885, 0.110087, 9.8785, 0, -0.0305176, 0, 26.32, 90840
12383, 0, 0.0392725, 0.26127, -0.111357, 0.0244638, 0.134551, 9.87116, 0, -0.0305176, 0.0915527, 26.3122, 90840.3
12393, 0.00246094, 0.0406055, 0.244966, -0.107974, 0.031803, 0.129658, 9.88095, -0.0457764, 0.0915527, 0.0152588, 26.3084, 90840.8
12403, 0.000820312, 0.0422461, 0.244966, -0.114331, 0.0440349, 0.136998, 9.87605, 0.0457764, 0.0305176, 0.0610352, 26.2995, 90840.3
12413, 0.000820312, 0.0397852, 0.26127, -0.107563, 0.0464813, 0.124766, 9.89073, 0, 0.0305176, -0.0305176, 26.3079, 90839.8
12423, 0.000820312, 0.0401953, 0.244145, -0.112998, 0.0513741, 0.11498, 9.86382, -0.0305176, 0.0305176, 0.0305176, 26.3114, 90840.5
12433, 0, 0.038042, 0.262192, -0.109307, 0.0489277, 0.110087, 9.89073, -0.0152588, -0.0152588, 0.0152588, 26.3106, 90839.9
12443, 0.000410156, 0.038042, 0.242505, -0.109307, 0.0464813, 0.11498, 9.85648, -0.0305176, 0.0152588, -0.0152588, 26.3038, 90840.2
12463, 0.00205078, 0.0392725, 0.262192, -0.106743, 0.0366958, 0.11498, 9.88339, 0.0610352, 0.106812, -0.0610352, 26.3098, 90840.3
12473, 0.00205078, 0.0414258, 0.240762, -0.114331, 0.0440349, 0.119873, 9.86137, -0.0610352, -0.0305176, 0.0152588, 26.3055, 90840.1
12483, 0.00246094, 0.0397852, 0.262603, -0.107563, 0.0244638, 0.127212, 9.85159, 0.0152588, -0.0152588, 0.0457764, 26.3131, 90839.8
12493, 0.000410156, 0.0397852, 0.244556, -0.107563, 0.0538205, 0.11498, 9.88095, -0.106812, 0.0457764, -0.0762939, 26.3135, 90840.5
12503, 0.00410156, 0.0418359, 0.262603, -0.114331, 0.0293566, 0.11498, 9.87605, -0.0457764, 0.0457764, 0.0457764, 26.3112, 90839.8
12513, 0.00205078, 0.0388623, 0.262603, -0.108896, 0.0342494, 0.11498, 9.84914, 0.0152588, 0, -0.0152588, 26.3136, 90840.2
12523, 0.00205078, 0.0397852, 0.24917, -0.116382, 0.0293566, 0.119873, 9.87605, 0.0152588, 0.0610352, -0.0152588, 26.3124, 90840.3
12533, 0.00205078, 0.038042, 0.257988, -0.106743, 0.031803, 0.117426, 9.87605, 0, 0.0457764, -0.0152588, 26.3204, 90840.7
12553, 0.000410156, 0.0410156, 0.255425, -0.117202, 0.0146783, 0.129658, 9.85648, 0.0152588, -0.0762939, -0.0457764, 26.308, 90840.3
12563, -0.000820312, 0.0410156, 0.255425, -0.107153, 0.0489277, 0.11498, 9.86137, -0.0152588, 0.0152588, 0.0152588, 26.3202, 90839.6
12573, 0.000410156, 0.0410156, 0.246709, -0.112998, 0.0366958, 0.127212, 9.85404, -0.0762939, -0.0457764, 0.0305176, 26.3144, 90840.1
12583, 0.000410156, 0.0388623, 0.257578, -0.109307, 0.0440349, 0.124766, 9.85648, -0.0610352, 0.0305176, -0.0457764, 26.3095, 90839.6
12593, 0.000410156, 0.0388623, 0.251221, -0.109307, 0.0366958, 0.134551, 9.8785, -0.0152588, 0, 0.0152588, 26.3278, 90839.4
12603, 0.00410156, 0.0388623, 0.253784, -0.112588, 0.0293566, 0.117426, 9.89807, -0.0915527, 0.0305176, -0.0305176, 26.3033, 90840
12613, 0.00164062, 0.0418359, 0.253784, -0.106333, 0.0513741, 0.122319, 9.85159, -0.0457764, -0.0305176, 0.0152588, 26.3035, 90839.1
12633, 0.00164062, 0.0392725, 0.252554, -0.109307, 0.0293566, 0.149229, 9.87116, -0.0610352, 0, 0, 26.3148, 90840.2
12643, 0.00164062, 0.0414258, 0.257168, -0.114331, 0.0489277, 0.139444, 9.85893, 0, -0.0305176, -0.0152588, 26.3106, 90840
12653, 0.00123047, 0.0414258, 0.246196, -0.114331, 0.0391421, 0.112534, 9.86871, -0.0915527, 0.0762939, 0.0305176, 26.3175, 90839.2
12663, 0.00246094, 0.0438867, 0.255425, -0.109717, 0.0440349, 0.110087, 9.86627, -0.0152588, -0.106812, 0.0305176, 26.3106, 90839.9
12673, 0, 0.0372217, 0.255425, -0.108896, 0.0293566, 0.122319, 9.88095, 0.0152588, 0.0762939, -0.0152588, 26.3134, 90840.1
12683, 0, 0.0401953, 0.247529, -0.111768, 0.0513741, 0.107641, 9.86871, -0.0305176, -0.0152588, 0.0457764, 26.3095, 90839.8
12693, 0.00164062, 0.0351709, 0.258809, -0.110127, 0.0220175, 0.112534, 9.86627, 0, -0.0610352, 0.0305176, 26.3135, 90840.1
12703, 0.00205078, 0.0351709, 0.247529, -0.110127, 0.0366958, 0.117426, 9.86627, 0, 0.0915527, 0, 26.3119, 90839.2
12723, 0.00164062, 0.0410156, 0.260039, -0.110127, 0.0342494, 0.117426, 9.88095, 0, -0.0610352, -0.0305176, 26.3242, 90839.4
12733, 0.00164062, 0.0397852, 0.242915, -0.111357, 0.0538205, 0.124766, 9.86137, 0, 0.0305176, 0, 26.3171, 90840.5
12743, 0.000820312, 0.0384521, 0.261782, -0.109717, 0.0391421, 0.119873, 9.88584, 0, 0, 0.0457764, 26.3152, 90840.2
12753, -0.000410156, 0.0384521, 0.242915, -0.109717, 0.0538205, 0.110087, 9.86627, -0.0610352, -0.0305176, -0.0305176, 26.3182, 90840.2
12763, 0, 0.0397852, 0.262192, -0.111768, 0.0220175, 0.122319, 9.86627, 0, 0.0762939, 0.0152588, 26.3209, 90840.2
12773, -0.000410156, 0.0376318, 0.262192, -0.107153, 0.0440349, 0.124766, 9.88584, -0.0762939, 0.0915527, -0.0305176, 26.3059, 90839.7
12783, 0.000820312, 0.0422461, 0.242915, -0.113511, 0.0391421, 0.117426, 9.87361, 0.0152588, -0.0457764, -0.0305176, 26.3097, 90840
12803, 0.00164062, 0.0406055, 0.244966, -0.106743, 0.0464813, 0.11498, 9.85648, -0.0305176, 0.0457764, 0.0457764, 26.3193, 90840.4
12813, 0.00369141, 0.0430664, 0.263013, -0.112998, 0.031803, 0.119873, 9.88095, -0.0152588, 0, 0.0457764, 26.3137, 90840
12823, 0, 0.0376318, 0.263013, -0.107974, 0.0513741, 0.127212, 9.86871, 0, 0.0457764, 0.0152588, 26.3188, 90840.7
12833, 0.00246094, 0.0401953, 0.245786, -0.112178, 0.0293566, 0.129658, 9.85159, 0, 0, 0, 26.3119, 90839.9
12843, 0.00246094, 0.0418359, 0.261782, -0.107974, 0.0269102, 0.122319, 9.87116, 0.0305176, 0.0152588, -0.0305176, 26.3099, 90840.1
12853, 0.00246094, 0.0397852, 0.245786, -0.112588, 0.0415885, 0.110087, 9.87605, 0, 0.0610352, -0.0152588, 26.3264, 90840
12863, 0.000820312, 0.0397852, 0.26127, -0.112588, 0.0195711, 0.122319, 9.86382, -0.0305176, 0.0610352, -0.0152588, 26.3229, 90840.2
12873, 0.00287109, 0.0364014, 0.246196, -0.104282, 0.0366958, 0.119873, 9.85893, 0, 0.0152588, 0.0152588, 26.3129, 90839.5
12893, 0, 0.0397852, 0.259219, -0.108384, 0.0415885, 0.132105, 9.88829, 0.0152588, 0.12207, 0.0305176, 26.325, 90840.6
12903, -0.000410156, 0.0418359, 0.246709, -0.115972, 0.0464813, 0.105195, 9.87361, 0.0152588, -0.0457764, 0, 26.3201, 90840.1
12913, 0.00123047, 0.0418359, 0.256245, -0.115972, 0.0342494, 0.105195, 9.88584, -0.0457764, -0.0152588, 0.0152588, 26.3131, 90840.2
12923, 0.000410156, 0.038042, 0.24999, -0.107563, 0.0464813, 0.124766, 9.85404, 0.0152588, -0.0610352, 0, 26.3241, 90840.2
12933, 0.000410156, 0.0426563, 0.24999, -0.115972, 0.031803, 0.134551, 9.8785, -0.0152588, -0.0610352, -0.0152588, 26.3212, 90840.6
12943, 0, 0.0401953, 0.255835, -0.110127, 0.0293566, 0.102748, 9.86627, 0.0762939, 0.0610352, 0.0610352, 26.3157, 90839.9
12953, 0, 0.0384521, 0.252964, -0.114331, 0.0440349, 0.124766, 9.85404, -0.0152588, -0.0305176, -0.0152588, 26.3233, 90839.9
12973, 0.00164062, 0.0410156, 0.253374, -0.107974, 0.0342494, 0.11498, 9.86627, -0.0762939, -0.0152588, -0.0457764, 26.311, 90840.1
12983, 0.00205078, 0.0410156, 0.253374, -0.112588, 0.0342494, 0.124766, 9.8785, 0.0305176, 0, 0.0305176, 26.3096, 90840.1
12993, 0, 0.0384521, 0.251733, -0.105923, 0.0391421, 0.127212, 9.86627, -0.0305176, 0, -0.0305176, 26.3207, 90840.1
13003, 0, 0.0410156, 0.255425, -0.113511, 0.031803, 0.107641, 9.87116, -0.0305176, 0.0152588, -0.0152588, 26.3238, 90839.7
13013, 0.000820312, 0.0410156, 0.250811, -0.113511, 0.0146783, 0.127212, 9.86382, 0, 0.0305176, 0, 26.3174, 90840.3
13023, 0.000820312, 0.0384521, 0.257988, -0.111768, 0.0391421, 0.124766, 9.87116, -0.0457764, 0.0457764, 0.0457764, 26.3237, 90840.1
13033, 0.00369141, 0.0410156, 0.257988, -0.112998, 0.0244638, 0.127212, 9.8785, -0.137329, -0.0152588, 0, 26.3115, 90840.1
13043, -0.000820312, 0.0410156, 0.24958, -0.110947, 0.0269102, 0.107641, 9.87605, -0.0305176, 0.0610352, -0.0305176, 26.3213, 90838.9
13063, 0.00246094, 0.0384521, 0.245376, -0.110947, 0.0440349, 0.124766, 9.88584, -0.0305176, -0.0152588, 0.0152588, 26.3239, 90839.5
13073, 0.00287109, 0.0401953, 0.26127, -0.110537, 0.0415885, 0.124766, 9.86137, -0.0915527, -0.0152588, 0.0457764, 26.3234, 90839.6
13083, -0.000410156, 0.0392725, 0.243325, -0.110537, 0.0415885, 0.122319, 9.86382, -0.0915527, 0.0610352, -0.0152588, 26.3225, 90839.7
13093, 0.00123047, 0.0426563, 0.243325, -0.112588, 0.0293566, 0.117426, 9.87361, 0.0915527, -0.0305176, 0, 26.3141, 90839.6
13103, 0.00123047, 0.0401953, 0.262192, -0.107563, 0.0415885, 0.107641, 9.86137, -0.0305176, -0.0457764, 0.0152588, 26.3167, 90839.5
13113, 0.000820312, 0.0406055, 0.242095, -0.112178, 0.0293566, 0.127212, 9.86627, -0.0305176, -0.0152588, -0.0457764, 26.307, 90839.2
13123, 0, 0.0406055, 0.261782, -0.112178, 0.031803, 0.136998, 9.88095, -0.0305176, -0.0152588, 0.0305176, 26.3166, 90839.8
13143, 0.00205078, 0.0388623, 0.246196, -0.112588, 0.0244638, 0.132105, 9.89073, 0.0152588, 0.0762939, -0.0457764, 26.3257, 90839.8
13153, 0.00246094, 0.0410156, 0.260859, -0.106743, 0.0440349, 0.127212, 9.86871, -0.0152588, -0.0762939, 0.0305176, 26.308, 90839.5
13163, 0.00246094, 0.0392725, 0.242915, -0.113921, 0.0391421, 0.129658, 9.87361, 0.0305176, 0.106812, 0, 26.3109, 90840
13173, 0.00205078, 0.0392725, 0.263013, -0.113921, 0.0342494, 0.11498, 9.87116, 0, 0.0762939, 0, 26.3116, 90840.2
13183, 0, 0.0392725, 0.244966, -0.107974, 0.0440349, 0.129658, 9.84914, 0, 0.0457764, 0, 26.3219, 90840
13193, 0.00205078, 0.0414258, 0.244966, -0.115972, 0.031803, 0.11498, 9.87361, 0, 0.0457764, 0.0152588, 26.3172, 90839.9
13203, 0.00369141, 0.0372217, 0.263423, -0.109717, 0.0415885, 0.107641, 9.88829, 0, 0.0152588, 0.0305176, 26.3229, 90839.9
13213, 0.00369141, 0.0401953, 0.247529, -0.113921, 0.0464813, 0.110087, 9.85648, 0.0457764, 0.0305176, -0.0305176, 26.303, 90840.6
13233, 0.000820312, 0.0384521, 0.247119, -0.107153, 0.0293566, 0.132105, 9.86382, -0.0610352, 0.0610352, -0.0152588, 26.3141, 90839
13243, 0.000410156, 0.0397852, 0.247119, -0.116792, 0.0464813, 0.132105, 9.8418, 0, 0.0610352, 0.0305176, 26.3082, 90839.7
13253, 0.00123047, 0.0397852, 0.258398, -0.105513, 0.0220175, 0.132105, 9.88339, -0.0152588, 0, 0.0305176, 26.3333, 90839.4
13263, 0.00123047, 0.0426563, 0.247529, -0.115151, 0.0293566, 0.122319, 9.85648, 0.0457764, -0.0152588, 0.0305176, 26.3274, 90840.5
13273, 0.000820312, 0.0426563, 0.258398, -0.115151, 0.0342494, 0.11498, 9.87361, -0.0305176, 0.106812, 0, 26.3214, 90840.3
13283, 0.000410156, 0.0392725, 0.247529, -0.106743, 0.0269102, 0.107641, 9.88339, -0.0457764, 0.0305176, -0.0305176, 26.3257, 90839.8
13293, 0.00123047, 0.0430664, 0.257578, -0.114741, 0.0269102, 0.127212, 9.86627, 0.0457764, 0.0915527, 0, 26.3242, 90839.9
13313, 0.00164062, 0.0414258, 0.252964, -0.113921, 0.031803, 0.112534, 9.89073, 0.0305176, 0.0152588, -0.0152588, 26.3053, 90840.2
13323, 0.00205078, 0.0410156, 0.255015, -0.108384, 0.031803, 0.124766, 9.86382, -0.0152588, -0.0152588, 0, 26.3313, 90839.2
13333, 0.00328125, 0.0410156, 0.252964, -0.108384, 0.0415885, 0.117426, 9.88339, -0.0457764, 0, 0.0305176, 26.3177, 90839.4
13343, 0, 0.0414258, 0.253374, -0.112998, 0.0293566, 0.107641, 9.87605, -0.0305176, 0.0152588, 0, 26.3147, 90839.7
13353, 0.00164062, 0.0384521, 0.253374, -0.110127, 0.0220175, 0.11498, 9.88339, 0, 0, -0.0457764, 26.3178, 90840
13363, 0.00164062, 0.0434766, 0.255835, -0.113511, 0.0342494, 0.124766, 9.86382, -0.0305176, 0.0305176, -0.0152588, 26.3185, 90839.6
13373, 0.00164062, 0.0392725, 0.252554, -0.106743, 0.0269102, 0.124766, 9.88339, 0.0457764, -0.0457764, 0.0152588, 26.3275, 90839.6
13383, 0.00123047, 0.0392725, 0.260449, -0.106743, 0.0269102, 0.107641, 9.87605, 0.0305176, 0.0305176, 0.0305176, 26.3248, 90840
13403, 0.00246094, 0.0406055, 0.245376, -0.108384, 0.0220175, 0.112534, 9.85404, 0, -0.0457764, 0, 26.3216, 90839.3
13413, 0.00246094, 0.0422461, 0.258809, -0.112178, 0.0464813, 0.119873, 9.88339, 0, 0.0152588, 0.0305176, 26.3254, 90839.7
13423, 0.00246094, 0.0406055, 0.246709, -0.110537, 0.0391421, 0.112534, 9.86382, -0.0457764, -0.0152588, -0.0305176, 26.321, 90840.1
13433, 0.00205078, 0.0406055, 0.258809, -0.110537, 0.0342494, 0.112534, 9.85404, -0.106812, 0.0305176, -0.0152588, 26.3157, 90839.6
13443, 0.00369141, 0.0418359, 0.246709, -0.109307, 0.0293566, 0.112534, 9.87361, 0.0152588, -0.0457764, 0.0305176, 26.3184, 90839.4
13453, 0.000410156, 0.0406055, 0.246709, -0.109307, 0.0440349, 0.11498, 9.87605, -0.0762939, 0.0457764, 0.0762939, 26.3185, 90840
13463, 0.000410156, 0.0384521, 0.260039, -0.108896, 0.031803, 0.129658, 9.86382, 0, 0.0152588, 0, 26.3197, 90840
13483, 0.00205078, 0.0410156, 0.260039, -0.112588, 0.0366958, 0.119873, 9.86871, -0.0152588, 0.0305176, -0.0305176, 26.3321, 90839.8
13493, 0.00246094, 0.0392725, 0.243735, -0.110947, 0.031803, 0.134551, 9.86871, 0.0305176, -0.0457764, 0, 26.3176, 90839.7
13503, 0.00164062, 0.0418359, 0.263013, -0.111768, 0.0391421, 0.122319, 9.86627, 0, 0.0305176, 0.0610352, 26.319, 90839.7
13513, -0.000410156, 0.0376318, 0.263013, -0.107974, 0.0293566, 0.11498, 9.87116, -0.0305176, -0.0457764, 0, 26.3225, 90839.8
13523, -0.000410156, 0.0430664, 0.242915, -0.113511, 0.0391421, 0.119873, 9.87605, -0.0152588, -0.0152588, 0.0457764, 26.3265, 90840.1
13533, 0.00205078, 0.0388623, 0.264653, -0.106743, 0.00978554, 0.132105, 9.87116, 0.0457764, 0.0457764, 0.0305176, 26.3134, 90840.3
13543, 0.00246094, 0.0388623, 0.242915, -0.106743, 0.0195711, 0.107641, 9.88339, -0.0152588, 0, -0.0152588, 26.3257, 90840
13553, 0.000410156, 0.0397852, 0.263013, -0.115151, 0.0269102, 0.132105, 9.89318, -0.0762939, 0.0610352, 0.0305176, 26.338, 90839.8
13573, -0.000820312, 0.0414258, 0.244556, -0.114741, 0.0415885, 0.127212, 9.88584, -0.0457764, 0.0305176, 0, 26.3238, 90839.7
13583, -0.000820312, 0.0397852, 0.260859, -0.106333, 0.0366958, 0.11498, 9.86871, -0.0915527, 0.0762939, -0.0305176, 26.3195, 90840.1
13593, 0.00205078, 0.0397852, 0.245376, -0.106333, 0.0538205, 0.124766, 9.86137, -0.0305176, -0.0152588, 0.0610352, 26.3229, 90839.9
13603, 0.00246094, 0.0397852, 0.258809, -0.115151, 0.0415885, 0.134551, 9.86137, -0.0762939, 0.0457764, 0.0762939, 26.3264, 90839.4
13613, 0.00287109, 0.0392725, 0.258809, -0.107153, 0.0220175, 0.122319, 9.87605, -0.0305176, -0.0152588, 0.0152588, 26.3278, 90839.9
13623, 0.00369141, 0.0422461, 0.24835, -0.114331, 0.0538205, 0.11498, 9.86871, 0.0305176, 0.0152588, -0.0152588, 26.3169, 90839.7
13633, 0.00369141, 0.038042, 0.256245, -0.106333, 0.0342494, 0.14189, 9.86871, -0.0152588, 0.0762939, 0.0305176, 26.3159, 90840
13643, 0.00246094, 0.038042, 0.24876, -0.106333, 0.0342494, 0.119873, 9.86382, 0.106812, 0, -0.0152588, 26.3149, 90839.7
13663, 0.00123047, 0.0372217, 0.257168, -0.104692, 0.0293566, 0.11498, 9.85648, 0.0152588, -0.0457764, 0.0305176, 26.3293, 90839.7
13673, 0.00410156, 0.0410156, 0.250811, -0.114331, 0.0538205, 0.117426, 9.88829, -0.0152588, 0.0762939, 0.0152588, 26.3254, 90839.7
13683, 0.00410156, 0.038042, 0.254604, -0.106743, 0.0366958, 0.11498, 9.87361, 0.0457764, -0.0305176, 0, 26.3233, 90839.1
13693, 0.00205078, 0.038042, 0.254194, -0.106743, 0.0269102, 0.110087, 9.86627, 0.0305176, 0.0762939, -0.0152588, 26.3287, 90839.5
13703, 0.000820312, 0.0418359, 0.252554, -0.110127, 0.0269102, 0.119873, 9.86871, 0.0305176, 0.0457764, -0.0152588, 26.3177, 90839.9
13713, 0.00246094, 0.038042, 0.254604, -0.105513, 0.0415885, 0.127212, 9.8785, 0.0457764, 0, -0.0305176, 26.3261, 90839.7
13723, 0.00123047, 0.0438867, 0.254604, -0.112588, 0.0269102, 0.119873, 9.86137, -0.0610352, 0.0152588, 0, 26.3214, 90839.8
13743, -0.000410156, 0.0384521, 0.258398, -0.111768, 0.0440349, 0.119873, 9.87116, 0, 0.0152588, 0, 26.3279, 90839.6
13753, -0.000410156, 0.0414258, 0.246709, -0.111768, 0.0366958, 0.127212, 9.85404, -0.0305176, -0.0152588, 0.0152588, 26.3219, 90839.5
13763, 0.00205078, 0.0392725, 0.258809, -0.107974, 0.0464813, 0.127212, 9.85404, -0.0305176, 0.0305176, -0.0152588, 26.3227, 90839.8
13773, -0.000410156, 0.0414258, 0.258809, -0.110537, 0.0269102, 0.11498, 9.87605, -0.0457764, 0.0152588, 0.0457764, 26.3314, 90839.5
13783, 0.00205078, 0.0406055, 0.247529, -0.109307, 0.0366958, 0.127212, 9.87361, -0.0457764, 0.0457764, 0, 26.3249, 90840.1
13793, 0.00205078, 0.0401953, 0.258398, -0.111357, 0.0220175, 0.110087, 9.86871, 0, -0.0457764, 0.0152588, 26.3288, 90839.6
13803, 0.00205078, 0.0401953, 0.247119, -0.111357, 0.0293566, 0.119873, 9.86137, -0.0457764, -0.0152588, -0.0152588, 26.31, 90840.1
13813, 0.00164062, 0.0422461, 0.260449, -0.110947, 0.0489277, 0.117426, 9.89562, -0.0305176, 0.0610352, 0.0457764, 26.3199, 90840.1
13833, 0.00123047, 0.0406055, 0.244556, -0.110537, 0.0513741, 0.11498, 9.85648, -0.0305176, -0.0152588, 0.0610352, 26.3193, 90839.8
13843, 0.00123047, 0.0406055, 0.262192, -0.108384, 0.0342494, 0.117426, 9.87605, 0, 0.0457764, -0.0305176, 26.3238, 90839.8
13853, 0.00205078, 0.0406055, 0.243325, -0.108384, 0.0342494, 0.132105, 9.86382, 0.0305176, 0.0610352, -0.0457764, 26.3254, 90840.3
13863, 0.00205078, 0.0406055, 0.264243, -0.112178, 0.0513741, 0.117426, 9.87116, -0.0457764, 0.0915527, -0.0305176, 26.3335, 90840.5
13873, 0, 0.0388623, 0.264243, -0.109717, 0.0220175, 0.11498, 9.87361, -0.0610352, -0.0457764, -0.0305176, 26.3288, 90839.8
13883, 0.000820312, 0.0388623, 0.243735, -0.112998, 0.031803, 0.127212, 9.88829, 0, 0.106812, 0.0457764, 26.3199, 90840.4
13893, 0.000820312, 0.0388623, 0.260859, -0.106333, 0.0220175, 0.122319, 9.85893, -0.0305176, 0.0915527, -0.0152588, 26.3284, 90840.2
13913, 0.00164062, 0.0414258, 0.260039, -0.114331, 0.0269102, 0.11498, 9.8785, -0.0152588, 0.0152588, -0.0457764, 26.3325, 90840.5
13923, 0.00164062, 0.0384521, 0.242915, -0.108384, 0.0269102, 0.119873, 9.8785, -0.0305176, 0, -0.0305176, 26.325, 90839.7
13933, 0.00287109, 0.0401953, 0.242915, -0.112998, 0.0415885, 0.110087, 9.87605, 0, 0, 0.0305176, 26.327, 90839.7
13943, 0, 0.0397852, 0.260859, -0.106743, 0.031803, 0.124766, 9.87605, -0.0610352, -0.0152588, 0, 26.3313, 90839.7
13953, 0, 0.0397852, 0.245376, -0.116382, 0.0293566, 0.107641, 9.87116, -0.0305176, 0.0152588, -0.0152588, 26.3234, 90839.5
13963, 0.000410156, 0.0384521, 0.259629, -0.116382, 0.0342494, 0.107641, 9.86137, 0.0305176, 0.0152588, 0.0457764, 26.3317, 90839.7
13973, 0.00205078, 0.038042, 0.24876, -0.105513, 0.0513741, 0.119873, 9.85648, 0, 0.0762939, 0.0152588, 26.3268, 90839.6
13983, 0.000820312, 0.0430664, 0.24876, -0.114331, 0.0244638, 0.132105, 9.86627, 0, 0.0305176, 0.0457764, 26.3236, 90840
14003, 0.00246094, 0.0418359, 0.250811, -0.112588, 0.0366958, 0.119873, 9.86871, 0.0610352, -0.0457764, 0.0610352, 26.3299, 90839.6
14013, 0.00369141, 0.0418359, 0.256245, -0.112588, 0.0366958, 0.117426, 9.86382, -0.0152588, 0.0915527, 0.0305176, 26.328, 90839.3
14023, 0.000410156, 0.0355811, 0.246709, -0.104282, 0.0220175, 0.119873, 9.89318, -0.0457764, 0.0152588, 0.0305176, 26.3283, 90840.1
14033, 0.00205078, 0.0410156, 0.246709, -0.113921, 0.0391421, 0.119873, 9.87116, -0.0762939, -0.0305176, 0.0305176, 26.3283, 90840
14043, 0.000410156, 0.0384521, 0.252144, -0.105103, 0.0342494, 0.119873, 9.86382, -0.0305176, 0.0152588, 0.0152588, 26.3146, 90839.5
14053, 0.000410156, 0.0430664, 0.24917, -0.111357, 0.0513741, 0.107641, 9.89318, 0, 0.0305176, 0, 26.3328, 90839.4
14063, 0.00205078, 0.0430664, 0.24999, -0.111357, 0.0391421, 0.119873, 9.86627, -0.0152588, -0.0457764, 0.0152588, 26.3298, 90840
14083, -0.000820312, 0.0406055, 0.250811, -0.111768, 0.0415885, 0.110087, 9.86627, -0.0457764, 0.137329, -0.0152588, 26.3355, 90840
14093, 0.000820312, 0.038042, 0.24917, -0.106333, 0.0293566, 0.127212, 9.88829, -0.0152588, -0.0610352, -0.0762939, 26.3287, 90840.3
14103, 0.000820312, 0.0414258, 0.253784, -0.109717, 0.0415885, 0.122319, 9.85648, 0.106812, -0.0305176, 0.0305176, 26.3273, 90839.7
14113, 0.00205078, 0.0414258, 0.247119, -0.109717, 0.0244638, 0.136998, 9.86382, -0.0457764, 0.0152588, -0.0305176, 26.3244, 90839.9
14123, -0.000410156, 0.0388623, 0.254604, -0.107563, 0.0122319, 0.117426, 9.87116, -0.0305176, 0.106812, 0.0610352, 26.3284, 90839.8
14133, 0.00123047, 0.0401953, 0.245786, -0.110127, 0.0220175, 0.112534, 9.86382, -0.0152588, 0, 0.0305176, 26.3312, 90840.2
14143, -0.00123047, 0.0372217, 0.245786, -0.107974, 0.031803, 0.127212, 9.86137, -0.0915527, -0.0152588, 0.0610352, 26.3255, 90839.9
14153, -0.000410156, 0.0418359, 0.257988, -0.110537, 0.0489277, 0.112534, 9.86382, -0.0610352, 0.0457764, 0.0152588, 26.3138, 90839.8
14173, 0.00246094, 0.0368115, 0.258809, -0.111357, 0.0220175, 0.122319, 9.86382, 0, 0.0610352, -0.0305176, 26.3204, 90840.1
14183, 0.00123047, 0.0384521, 0.242915, -0.108384, 0.0440349, 0.129658, 9.86382, -0.0152588, 0.0610352, 0.0152588, 26.3301, 90840.3
14193, 0.000410156, 0.0414258, 0.242915, -0.111357, 0.031803, 0.124766, 9.87605, -0.0152588, -0.0305176, 0, 26.3247, 90839.6
14203, 0.00205078, 0.0388623, 0.261782, -0.107974, 0.0415885, 0.119873, 9.86382, 0.0457764, 0.0457764, 0.0457764, 26.3276, 90839.8
14213, 0.00205078, 0.0418359, 0.242505, -0.111357, 0.0146783, 0.107641, 9.88829, -0.0305176, 0.0457764, -0.0457764, 26.3239, 90839.7
14223, 0, 0.0418359, 0.260449, -0.111357, 0.0244638, 0.105195, 9.87605, 0.0305176, -0.0457764, -0.0152588, 26.3345, 90839.8
14233, 0.00369141, 0.0406055, 0.243325, -0.109307, 0.0440349, 0.122319, 9.86382, -0.0305176, 0, -0.0457764, 26.3343, 90839.3
14253, 0.000410156, 0.0376318, 0.260859, -0.107974, 0.0440349, 0.127212, 9.85159, -0.0457764, -0.0152588, 0.0305176, 26.3212, 90840.1
14263, 0.000410156, 0.0392725, 0.245786, -0.113511, 0.031803, 0.117426, 9.88339, -0.0152588, 0, 0.0152588, 26.3309, 90840.2
14273, 0.000820312, 0.0392725, 0.262192, -0.113511, 0.0489277, 0.124766, 9.86871, -0.12207, 0, 0.0457764, 26.337, 90840
14283, 0.00123047, 0.0401953, 0.244145, -0.108384, 0.0244638, 0.105195, 9.86382, 0.0457764, -0.0152588, 0.0152588, 26.3298, 90839.3
14293, 0.00369141, 0.0401953, 0.244145, -0.112588, 0.0269102, 0.110087, 9.88095, -0.0457764, 0.0762939, 0.0152588, 26.3214, 90839.4
14303, 0.000820312, 0.0388623, 0.260449, -0.106333, 0.0220175, 0.112534, 9.86627, -0.0305176, 0.0152588, 0.0152588, 26.3303, 90839.5
14313, 0.000820312, 0.0426563, 0.24835, -0.115151, 0.0415885, 0.129658, 9.85893, 0, -0.0305176, 0.0457764, 26.3282, 90839.6
14323, 0.000410156, 0.0426563, 0.26127, -0.115151, 0.0464813, 0.129658, 9.86627, -0.0305176, 0.0762939, 0.0610352, 26.326, 90840
14343, 0.00123047, 0.0406055, 0.258809, -0.114741, 0.0269102, 0.132105, 9.86382, 0.0152588, -0.0152588, 0.0457764, 26.3425, 90839.6
14353, 0.00410156, 0.0392725, 0.258809, -0.106333, 0.0342494, 0.122319, 9.87116, -0.0457764, -0.0610352, 0.0457764, 26.3299, 90839.6
14363, 0.000410156, 0.0418359, 0.24917, -0.116792, 0.0366958, 0.107641, 9.87361, -0.0152588, 0, 0.0457764, 26.3268, 90839.7
14373, 0.000410156, 0.0418359, 0.258398, -0.108896, 0.0293566, 0.107641, 9.85404, 0, 0.0152588, 0, 26.3336, 90839.7
14383, 0.00123047, 0.0384521, 0.250811, -0.108896, 0.0220175, 0.127212, 9.86627, 0.0610352, 0.0457764, 0.0457764, 26.3413, 90839.6
14393, 0.00328125, 0.0414258, 0.255015, -0.116792, 0.0366958, 0.139444, 9.86627, -0.0457764, 0.0305176, 0.0305176, 26.34, 90839.7
14403, 0.00164062, 0.0406055, 0.255015, -0.106743, 0.0269102, 0.119873, 9.8785, 0, -0.0152588, 0.0457764, 26.3341, 90839.7
14423, -0.00123047, 0.0392725, 0.254604, -0.109307, 0.0269102, 0.119873, 9.86871, -0.0610352, 0.0915527, -0.0305176, 26.339, 90840.1
14433, -0.000410156, 0.0392725, 0.252554, -0.109307, 0.0244638, 0.117426, 9.8785, 0, -0.0305176, -0.0152588, 26.3333, 90839.9
14443, -0.000820312, 0.0422461, 0.251221, -0.113511, 0.0342494, 0.11498, 9.8785, -0.0610352, 0, 0.0305176, 26.3246, 90839.8
14453, 0.00123047, 0.0384521, 0.251221, -0.108384, 0.0244638, 0.127212, 9.87116, -0.0152588, 0.0152588, 0.106812, 26.332, 90839.6
14463, 0.000820312, 0.0434766, 0.256758, -0.115151, 0.0366958, 0.11498, 9.89807, -0.0610352, -0.0610352, 0, 26.3279, 90839.9
14473, 0.000820312, 0.0364014, 0.24999, -0.107153, 0.0220175, 0.11498, 9.86871, 0, 0.0152588, 0, 26.3284, 90839.6
14483, 0.00205078, 0.0364014, 0.259219, -0.107153, 0.031803, 0.107641, 9.85159, 0.0152588, -0.0305176, 0, 26.3241, 90839.7
14493, 0.00205078, 0.0388623, 0.250811, -0.112178, 0.0415885, 0.110087, 9.89318, -0.0610352, 0.0610352, -0.0457764, 26.3348, 90839.9
14513, 0.00164062, 0.0410156, 0.261782, -0.112178, 0.0366958, 0.122319, 9.86137, 0.0305176, 0.0152588, 0.0305176, 26.3269, 90840
14523, 0.00164062, 0.0401953, 0.247939, -0.108896, 0.0366958, 0.112534, 9.86871, 0.0305176, 0.0457764, -0.0305176, 26.3305, 90839.4
14533, 0.000820312, 0.0401953, 0.260039, -0.108896, 0.0220175, 0.119873, 9.88095, -0.0305176, -0.0305176, 0.0457764, 26.3376, 90839.4
14543, 0.000820312, 0.0397852, 0.244145, -0.108896, 0.0489277, 0.11498, 9.85404, 0, -0.0762939, 0.0152588, 26.3294, 90839.2
14553, 0.00451172, 0.0397852, 0.263013, -0.112178, 0.0122319, 0.122319, 9.8785, -0.0152588, -0.0610352, 0.0305176, 26.3313, 90839.6
14563, 0.00246094, 0.0414258, 0.263013, -0.109717, 0.0391421, 0.117426, 9.86627, 0, 0.0457764, 0.0152588, 26.338, 90839.8
14573, 0.00123047, 0.0401953, 0.243325, -0.111768, 0.0489277, 0.117426, 9.86871, -0.106812, -0.0305176, 0, 26.3301, 90839.3
14593, 0.00164062, 0.0392725, 0.242915, -0.110127, 0.0391421, 0.134551, 9.85648, 0.0305176, 0.0457764, 0, 26.3406, 90839.9
14603, 0.000410156, 0.0410156, 0.263833, -0.112998, 0.0366958, 0.119873, 9.87605, -0.0305176, 0.0457764, 0.0152588, 26.3365, 90839.7
14613, 0.000820312, 0.0401953, 0.263833, -0.105923, 0.0293566, 0.136998, 9.87605, -0.0457764, 0.0305176, 0.0305176, 26.337, 90840.5
14623, 0.00287109, 0.0401953, 0.242505, -0.115151, 0.0391421, 0.105195, 9.86871, 0.0152588, 0.0610352, 0.0457764, 26.3425, 90840.2
14633, 0.00287109, 0.0401953, 0.260449, -0.110127, 0.0269102, 0.107641, 9.87116, 0.0457764, 0.0152588, 0.0305176, 26.32, 90839.7
14643, 0, 0.0376318, 0.246709, -0.110127, 0.0195711, 0.122319, 9.88095, -0.0457764, 0.0457764, 0, 26.335, 90839.5
14653, -0.00164062, 0.0410156, 0.261782, -0.114331, 0.0171247, 0.124766, 9.86382, 0.0152588, -0.0762939, 0.0305176, 26.3279, 90839.4
14663, -0.000820312, 0.0388623, 0.261782, -0.107153, 0.0366958, 0.14189, 9.86627, -0.0610352, 0.0762939, 0, 26.3452, 90839.7
14683, -0.000410156, 0.0376318, 0.259629, -0.107563, 0.0440349, 0.112534, 9.86627, 0.0457764, 0.0152588, 0, 26.3296, 90839.8
14693, 0.00123047, 0.0376318, 0.244966, -0.107563, 0.0293566, 0.119873, 9.87361, 0.0457764, 0.0762939, -0.0305176, 26.3305, 90839.4
14703, 0.00123047, 0.0426563, 0.258398, -0.112998, 0.0146783, 0.122319, 9.87116, -0.0152588, -0.0457764, -0.0152588, 26.3296, 90839.8
14713, 0.00164062, 0.0372217, 0.258398, -0.107153, 0.0342494, 0.110087, 9.86627, -0.0610352, 0.0305176, 0.0305176, 26.3369, 90840
14723, 0.00287109, 0.0418359, 0.247529, -0.112588, 0.0391421, 0.117426, 9.87605, -0.0457764, 0, -0.0305176, 26.3388, 90840.1
14733, 0.00123047, 0.0384521, 0.257578, -0.105513, 0.0342494, 0.129658, 9.86137, -0.0762939, -0.0610352, 0.0152588, 26.3382, 90839.8
14743, 0.00123047, 0.0384521, 0.250811, -0.105513, 0.0366958, 0.122319, 9.86382, 0.0457764, 0.0305176, 0.0152588, 26.3385, 90839.7
14763, 0.00205078, 0.0410156, 0.252554, -0.105103, 0.0513741, 0.122319, 9.86382, -0.0305176, -0.0305176, 0.0152588, 26.3283, 90840.3
14773, 0.000820312, 0.0410156, 0.252554, -0.115151, 0.0195711, 0.110087, 9.87361, -0.0152588, 0.106812, -0.0305176, 26.3398, 90839.8
14783, 0.00287109, 0.0397852, 0.254194, -0.109307, 0.0293566, 0.11498, 9.87116, -0.0610352, -0.0305176, 0.0152588, 26.3371, 90840.3
14793, 0.00287109, 0.0397852, 0.257168, -0.109307, 0.0269102, 0.139444, 9.86382, 0.0457764, -0.0305176, 0, 26.3357, 90839.4
14803, 0.00246094, 0.0410156, 0.253784, -0.112178, 0.0391421, 0.122319, 9.87361, 0, -0.0457764, -0.0152588, 26.332, 90839.4
14813, -0.00205078, 0.0384521, 0.254604, -0.107974, 0.0269102, 0.129658, 9.88829, -0.0305176, 0.0152588, 0, 26.3346, 90840.2
14823, 0.00451172, 0.0414258, 0.254604, -0.116382, 0.031803, 0.124766, 9.86627, -0.0152588, 0.0610352, 0, 26.3315, 90839.6
14833, 0.000410156, 0.0406055, 0.24876, -0.108896, 0.0391421, 0.124766, 9.8785, -0.0610352, -0.0457764, 0.0152588, 26.339, 90839.7
14853, 0.00246094, 0.0414258, 0.24917, -0.111768, 0.0366958, 0.117426, 9.86627, 0, 0.0762939, -0.0457764, 26.3376, 90839.8
14863, 0.000820312, 0.0392725, 0.257988, -0.109717, 0.0220175, 0.122319, 9.88095, 0, 0.0457764, 0.0457764, 26.3321, 90839.6
14873, 0, 0.0401953, 0.257988, -0.111357, 0.0391421, 0.112534, 9.87116, 0, 0.0152588, -0.0152588, 26.3395, 90840.2
14883, 0.000820312, 0.0388623, 0.247529, -0.108384, 0.0366958, 0.124766, 9.86627, -0.0305176, 0.0457764, 0, 26.3462, 90839.7
14893, 0.000820312, 0.0410156, 0.261782, -0.110947, 0.0342494, 0.124766, 9.86871, 0, 0.137329, 0.0457764, 26.336, 90839.4
14903, 0.00123047, 0.0410156, 0.24876, -0.110947, 0.0293566, 0.0978554, 9.86871, -0.0762939, 0.0305176, 0.0915527, 26.3346, 90839.6
14913, 0.00287109, 0.0414258, 0.260039, -0.111357, 0.0244638, 0.117426, 9.87605, -0.0305176, -0.0610352, 0, 26.3373, 90839.6
14933, 0.00369141, 0.0406055, 0.242505, -0.111357, 0.0220175, 0.119873, 9.88339, 0.106812, 0.12207, 0.0305176, 26.3395, 90840.1
14943, 0.00246094, 0.0397852, 0.260449, -0.108384, 0.0342494, 0.129658, 9.87361, -0.0457764, 0.0152588, 0.0610352, 26.3363, 90839.8
14953, 0.00246094, 0.0397852, 0.243735, -0.108384, 0.0391421, 0.134551, 9.86137, -0.0305176, 0.0305176, 0, 26.3369, 90839.7
14963, 0, 0.0392725, 0.260859, -0.109307, 0.0391421, 0.124766, 9.89318, 0.0610352, 0.0457764, -0.0457764, 26.34, 90839.8
14973, 0.000410156, 0.0376318, 0.243325, -0.108384, 0.031803, 0.124766, 9.86871, -0.0915527, -0.0152588, 0.0457764, 26.35, 90840
14983, 0.000410156, 0.0388623, 0.243325, -0.112998, 0.0293566, 0.124766, 9.88339, 0, 0.137329, 0.0152588, 26.3318, 90839.2
14993, 0.00164062, 0.0410156, 0.260859, -0.106743, 0.0366958, 0.117426, 9.86871, -0.0915527, 0.0610352, 0, 26.354, 90839.8
15003, 0.00164062, 0.0410156, 0.242505, -0.106743, 0.0342494, 0.110087, 9.87605, -0.0457764, 0, 0.0152588, 26.3393, 90839.8
15023, 0.00123047, 0.0384521, 0.243325, -0.107563, 0.0342494, 0.132105, 9.85648, -0.0305176, 0.0457764, -0.0305176, 26.3328, 90839.7
15033, 0.00328125, 0.0397852, 0.243325, -0.112178, 0.0244638, 0.134551, 9.88095, 0.0152588, 0.106812, 0.0305176, 26.3469, 90839.8
15043, 0.000820312, 0.038042, 0.260039, -0.106333, 0.0489277, 0.122319, 9.85404, -0.0305176, 0, 0, 26.3328, 90840.1
15053, 0.000820312, 0.038042, 0.245786, -0.112178, 0.0220175, 0.117426, 9.87605, -0.0457764, 0.0305176, 0, 26.3353, 90839.5
15063, 0.00205078, 0.0426563, 0.259629, -0.112178, 0.0244638, 0.11498, 9.8785, -0.0915527, 0.0610352, 0.0457764, 26.3321, 90839.5
15073, 0.000820312, 0.034248, 0.24958, -0.104692, 0.0342494, 0.136998, 9.86382, 0.0152588, -0.0610352, 0.0610352, 26.3366, 90839.4
15083, 0.00164062, 0.0406055, 0.24958, -0.115972, 0.0415885, 0.124766, 9.85648, -0.0610352, 0.106812, 0, 26.3376, 90840.3
15093, 0.00123047, 0.0368115, 0.260449, -0.106743, 0.0342494, 0.119873, 9.87361, -0.0457764, -0.0457764, -0.0152588, 26.3326, 90839.2
15113, 0, 0.0448096, 0.257578, -0.114741, 0.0342494, 0.129658, 9.86137, -0.0152588, 0.0610352, 0.0152588, 26.3263, 90839.8
15123, 0.000410156, 0.0376318, 0.252144, -0.105513, 0.0391421, 0.11498, 9.87116, -0.0762939, 0.0457764, 0.0610352, 26.3411, 90839.6
15133, 0.00287109, 0.0410156, 0.252144, -0.113921, 0.0342494, 0.124766, 9.87116, 0, -0.0152588, -0.0305176, 26.344, 90839.8
15143, 0.000410156, 0.0392725, 0.254604, -0.106743, 0.0391421, 0.129658, 9.86871, -0.0610352, -0.0305176, 0.0305176, 26.3488, 90839.8
15153, 0.000410156, 0.0430664, 0.251733, -0.112178, 0.0342494, 0.122319, 9.88095, 0, 0.0610352, 0.0762939, 26.3296, 90839.4
15163, 0.000410156, 0.0430664, 0.250811, -0.112178, 0.0464813, 0.11498, 9.86871, -0.0457764, -0.0152588, 0.0305176, 26.3361, 90839.7
15173, 0.00287109, 0.0406055, 0.253784, -0.107153, 0.0366958, 0.127212, 9.86137, -0.0762939, 0.0152588, 0, 26.3293, 90839.6
15193, 0.00205078, 0.0392725, 0.24876, -0.106333, 0.0366958, 0.105195, 9.87116, -0.0152588, -0.0915527, 0.0457764, 26.3333, 90839.8
15203, 0.00328125, 0.0418359, 0.258398, -0.115562, 0.0293566, 0.112534, 9.88584, -0.0762939, 0.0457764, -0.0610352, 26.3403, 90839.8
15213, 0.00328125, 0.0418359, 0.251221, -0.115562, 0.0342494, 0.110087, 9.85648, -0.0457764, 0.0152588, -0.0152588, 26.3377, 90839.4
15223, 0.00246094, 0.0397852, 0.260449, -0.107153, 0.0366958, 0.127212, 9.88829, -0.0305176, -0.0610352, 0.0610352, 26.3494, 90839.8
15233, 0.00246094, 0.0438867, 0.24917, -0.112998, 0.0293566, 0.127212, 9.85159, -0.0915527, 0.0152588, 0, 26.3266, 90839.6
