timestamp, current1, current2, current3, current4, accel x, accel y, accel z, degrees x, degrees y, degrees z, baro temp, baro pressure
4052, 0.000820312, 0.0129199, 0.0611133, -0.00502441, 0.181032, 0.0220175, 9.81734, -0.167847, 0, -0.0152588, 20.9559, 91696.2
4062, 0.00205078, 0.0145605, 0.0619336, -0.00410156, 0.168801, -0.0171247, 9.81, -0.183105, 0.137329, 0.0152588, 20.9524, 91696.8
4072, -0.00287109, 0.0129199, 0.0607031, -0.00328125, 0.134551, -0.0195711, 9.82468, -0.167847, 0.0457764, 0.0152588, 20.9534, 91696.5
4082, -0.00287109, 0.0137402, 0.0619336, -0.00328125, 0.127212, -0.0415885, 9.79532, -0.244141, 0.106812, -0.0152588, 20.9619, 91696.3
4092, 0.00123047, 0.0133301, 0.0619336, -0.00410156, 0.105195, -0.0342494, 9.80266, -0.12207, 0.0610352, 0.0457764, 20.9583, 91696.4
4102, 0.000820312, 0.0133301, 0.0627539, -0.00328125, 0.110087, -0.0562668, 9.80511, -0.167847, 0.0457764, -0.0457764, 20.9581, 91696.3
4112, -0.000820312, 0.0150732, 0.0623437, -0.00451172, 0.134551, -0.0391421, 9.7415, -0.228882, 0.0762939, -0.0305176, 20.968, 91696.4
4122, -0.000410156, 0.0137402, 0.0627539, -0.00369141, 0.0440349, -0.0391421, 9.88584, -0.244141, -0.0152588, -0.0152588, 20.9485, 91696.4
4142, -0.000410156, 0.0129199, 0.0615234, -0.00502441, 0, 0.00489277, 9.90296, -0.213623, -0.137329, -0.0457764, 20.9578, 91696.3
4152, 0.00123047, 0.0129199, 0.0615234, -0.00369141, 0.14189, 0.0122319, 9.73661, -0.167847, 0.0457764, 0.0152588, 20.9543, 91696.6
4162, 0.00246094, 0.0125098, 0.0615234, -0.00287109, 0.0587132, 0.0269102, 9.85648, -0.106812, 0, 0, 20.9632, 91695.5
4172, -0.000820312, 0.0150732, 0.0639844, -0.00246094, 0.134551, 0.00733915, 9.75618, -0.244141, 0.0915527, -0.0152588, 20.9561, 91696.5
4182, -0.000820312, 0.0145605, 0.0623437, -0.00246094, 0.0709451, 0.0244638, 9.81, -0.12207, 0.0305176, 0.0305176, 20.95, 91696
4192, -0.000410156, 0.0133301, 0.0611133, -0.00205078, 0.122319, 0.0122319, 9.7782, -0.106812, 0.12207, 0.0305176, 20.9558, 91696
4202, 0, 0.0133301, 0.0611133, -0.00451172, 0.100302, -0.0171247, 9.81979, -0.12207, -0.0152588, 0, 20.9466, 91696.8
4222, -0.000820312, 0.0141504, 0.0594727, -0.00246094, 0.107641, -0.0440349, 9.83202, -0.0915527, -0.106812, -0.0457764, 20.9618, 91696.7
4232, 0.00246094, 0.0145605, 0.0615234, -0.00328125, 0.127212, -0.0489277, 9.81, -0.167847, 0.152588, 0.0152588, 20.9544, 91696.6
4242, 0.00246094, 0.0129199, 0.05896, -0.00328125, 0.159015, -0.0489277, 9.81489, -0.0610352, 0.0610352, -0.106812, 20.9478, 91696.4
4252, 0.000410156, 0.0129199, 0.05896, -0.00369141, 0.159015, -0.0244638, 9.80755, -0.106812, 0.0457764, 0, 20.953, 91696.2
4262, 0.00164062, 0.0154834, 0.060293, -0.00410156, 0.17614, -0.0562668, 9.79777, -0.152588, 0.0457764, 0.0152588, 20.9707, 91696.4
4272, -0.000410156, 0.0163037, 0.0598828, -0.00369141, 0.168801, -0.031803, 9.82712, -0.198364, -0.0152588, -0.0152588, 20.9651, 91696.2
4282, 0.00328125, 0.0141504, 0.0598828, -0.00502441, 0.190818, -0.0171247, 9.80021, -0.12207, 0.0610352, -0.0457764, 20.9733, 91696.5
4292, 0.00328125, 0.0129199, 0.0598828, -0.00502441, 0.190818, -0.0220175, 9.83202, -0.137329, 0.0305176, -0.0610352, 20.9584, 91696.2
4312, 0.00205078, 0.0137402, 0.0627539, -0.00287109, 0.178586, -0.031803, 9.83446, -0.152588, 0.0305176, -0.0152588, 20.964, 91696.4
4322, -0.000820312, 0.0137402, 0.060293, -0.00502441, 0.195711, -0.0244638, 9.81, -0.198364, 0.0915527, -0.0457764, 20.965, 91696.2
4332, 0.000820312, 0.0154834, 0.0607031, -0.00543457, 0.17614, -0.0269102, 9.81979, -0.198364, 0.0762939, -0.0610352, 20.9621, 91696.8
4342, 0.000820312, 0.0133301, 0.060293, -0.00543457, 0.151676, -0.0391421, 9.80755, -0.183105, 0.106812, -0.0305176, 20.9611, 91696.3
4352, 0, 0.0145605, 0.0581396, -0.00164062, 0.136998, -0.0342494, 9.79043, -0.274658, 0.137329, -0.0305176, 20.9609, 91695.7
4362, 0.00164062, 0.0145605, 0.0581396, -0.00502441, 0.129658, -0.0342494, 9.81245, -0.213623, 0.106812, -0.0610352, 20.9575, 91696
4372, 0.00123047, 0.0125098, 0.0594727, -0.00451172, 0.146783, -0.0146783, 9.80021, -0.183105, 0.0762939, -0.0762939, 20.9506, 91696.5
4392, 0.000410156, 0.0145605, 0.0615234, -0.00246094, 0.136998, 0, 9.80266, -0.106812, 0.106812, -0.0152588, 20.9532, 91695.6
4402, 0.00287109, 0.0120996, 0.0585498, -0.00205078, 0.110087, 0.00489277, 9.78798, -0.12207, 0.0457764, 0.0305176, 20.9655, 91695.6
4412, 0.00246094, 0.0120996, 0.0585498, -0.00287109, 0.112534, -0.0195711, 9.81, -0.12207, 0.0762939, 0.0152588, 20.9552, 91696.1
4422, -0.00246094, 0.0158936, 0.0577295, -0.00246094, 0.100302, -0.00244638, 9.80266, -0.106812, -0.0152588, -0.0457764, 20.9513, 91697.1
4432, -0.000820312, 0.0145605, 0.0607031, -0.000820312, 0.110087, -0.00978554, 9.7733, -0.0610352, 0.0610352, -0.0152588, 20.9621, 91696.2
4442, -0.000410156, 0.0141504, 0.0627539, -0.00543457, 0.100302, -0.0171247, 9.82223, -0.0610352, 0.0762939, 0.0152588, 20.9567, 91696.3
4452, -0.000410156, 0.017124, 0.0594727, -0.00543457, 0.107641, 0.00244638, 9.78554, 0.0305176, 0.0305176, 0.106812, 20.9618, 91696.2
4462, 0.00123047, 0.017124, 0.0594727, -0.00287109, 0.0978554, 0.00733915, 9.80266, -0.0457764, 0.0152588, 0.0305176, 20.9635, 91696.6
4482, 0.00123047, 0.0154834, 0.0611133, -0.00164062, 0.0880698, -0.0342494, 9.80021, 0.0305176, -0.0610352, -0.0152588, 20.9515, 91697
4492, -0.000410156, 0.0154834, 0.0623437, -0.00287109, 0.102748, -0.0269102, 9.78554, -0.0457764, 0.0457764, 0.0152588, 20.9676, 91696.2
4502, -0.000410156, 0.0141504, 0.0611133, -0.00287109, 0.102748, -0.0366958, 9.81, 0.0762939, -0.0457764, -0.0152588, 20.9729, 91696.2
4512, 0.000820312, 0.0141504, 0.0611133, -0.00246094, 0.11498, -0.0366958, 9.81, -0.0152588, -0.0305176, 0.0610352, 20.9677, 91696.2
4522, 0.00205078, 0.0163037, 0.0627539, -0.00287109, 0.124766, -0.0293566, 9.81, 0.0305176, 0.0152588, 0.0762939, 20.9487, 91695.7
4532, 0, 0.0133301, 0.0607031, -0.00328125, 0.134551, -0.0171247, 9.79532, 0.0610352, 0.0610352, 0.0305176, 20.9607, 91696.8
4542, 0.000820312, 0.0141504, 0.0585498, -0.00205078, 0.144337, -0.0195711, 9.80511, -0.0610352, 0.12207, 0.0152588, 20.9682, 91696.4
4552, 0.000820312, 0.0158936, 0.0644971, -0.00205078, 0.151676, -0.0171247, 9.81, -0.0152588, 0, -0.0152588, 20.9552, 91695.6
4572, -0.00123047, 0.0154834, 0.0611133, -0.00205078, 0.178586, -0.00978554, 9.81734, -0.0152588, 0, 0.0610352, 20.9569, 91696.5
4582, 0.000410156, 0.0133301, 0.0623437, -0.00543457, 0.178586, -0.00489277, 9.79777, 0.0305176, 0.0305176, 0.0610352, 20.9522, 91695.8
4592, 0, 0.0129199, 0.0623437, -0.00287109, 0.171247, -0.0244638, 9.80511, 0.0305176, 0.0305176, 0.0457764, 20.9598, 91696.4
4602, 0, 0.0167139, 0.0615234, -0.00287109, 0.159015, -0.0195711, 9.80266, 0.0457764, 0.0762939, 0, 20.9498, 91696.2
4612, 0.000410156, 0.0154834, 0.0635742, -0.00328125, 0.166354, -0.0415885, 9.81, -0.0610352, 0.0305176, 0, 20.9582, 91696.5
4622, 0.00164062, 0.0154834, 0.0635742, -0.00410156, 0.151676, -0.0366958, 9.80021, -0.0457764, 0.0762939, 0.0762939, 20.9536, 91696
4632, 0, 0.0158936, 0.0615234, -0.00451172, 0.163908, -0.0562668, 9.83446, 0, 0, 0, 20.9537, 91695.8
4652, 0, 0.0133301, 0.0615234, -0.00502441, 0.154122, -0.0513741, 9.81245, -0.0152588, 0.0610352, -0.0610352, 20.9657, 91696.5
4662, 0, 0.0154834, 0.0611133, -0.00502441, 0.139444, -0.0440349, 9.82223, 0.0457764, -0.0762939, 0.0457764, 20.9574, 91696.5
4672, -0.00123047, 0.0154834, 0.0611133, -0.00369141, 0.149229, -0.031803, 9.81734, -0.0610352, 0.0305176, -0.0152588, 20.9595, 91695.8
4682, 0.00123047, 0.0141504, 0.0644971, -0.00369141, 0.136998, -0.00489277, 9.81, 0.0762939, -0.0305176, 0.0152588, 20.9639, 91696.2
4692, 0.00205078, 0.0154834, 0.0607031, -0.00328125, 0.146783, 0.0122319, 9.81734, 0.0457764, 0.0610352, 0.0610352, 20.9513, 91695.8
4702, 0.00287109, 0.0133301, 0.0627539, -0.00584473, 0.122319, 0.0293566, 9.81734, 0.152588, 0.0762939, -0.0152588, 20.9734, 91696.1
4712, 0.00287109, 0.0141504, 0.0644971, -0.00584473, 0.127212, 0.0391421, 9.81734, 0.228882, 0.0457764, 0.0610352, 20.958, 91696.1
4722, -0.00123047, 0.0141504, 0.0644971, -0.00205078, 0.134551, 0.0244638, 9.81, 0.228882, 0.0915527, 0.0305176, 20.958, 91696.2
4742, -0.000410156, 0.0125098, 0.0635742, -0.00369141, 0.127212, -0.0122319, 9.81245, 0.305176, 0.12207, 0.0305176, 20.9546, 91696
4752, 0.000410156, 0.0120996, 0.0631641, -0.00369141, 0.100302, -0.0122319, 9.79288, 0.38147, 0.167847, 0.0915527, 20.9619, 91696.2
4762, 0.000410156, 0.0145605, 0.0627539, -0.00369141, 0.122319, -0.0293566, 9.79777, 0.473022, 0.167847, 0.0305176, 20.9668, 91696.9
4772, -0.000410156, 0.0125098, 0.0635742, -0.00369141, 0.0856234, -0.0342494, 9.80266, 0.411987, 0.106812, 0.0762939, 20.9587, 91696.1
4782, -0.000410156, 0.0125098, 0.0635742, -0.00287109, 0.102748, 0.0122319, 9.7782, 0.335693, 0.167847, 0.137329, 20.963, 91696.1
4792, 0.00164062, 0.0145605, 0.0635742, -0.00164062, 0.0929626, -0.0122319, 9.79288, 0.228882, -0.12207, 0.0762939, 20.9661, 91696.6
4802, -0.00123047, 0.0129199, 0.0631641, -0.00246094, 0.11498, -0.0440349, 9.78309, 0.152588, 0.0762939, 0.0762939, 20.9606, 91695.6
4822, 0.000820312, 0.0154834, 0.0607031, -0.00205078, 0.124766, -0.0366958, 9.80511, 0.0915527, 0, 0.0152588, 20.9549, 91695.7
4832, 0.00246094, 0.0154834, 0.0607031, -0.00328125, 0.117426, -0.063606, 9.79288, 0.12207, -0.198364, 0, 20.9546, 91696
4842, -0.000410156, 0.0145605, 0.0631641, -0.00543457, 0.156569, -0.0366958, 9.75373, 0.0610352, 0.228882, 0.0610352, 20.9619, 91696
4852, 0, 0.0150732, 0.0627539, -0.00369141, 0.171247, -0.0195711, 9.83446, 0.0152588, -0.0915527, 0.0305176, 20.9503, 91696.7
4862, -0.000410156, 0.0133301, 0.0619336, -0.00328125, 0.105195, -0.00244638, 9.79532, 0, 0.0915527, -0.0457764, 20.951, 91696.5
4872, -0.000410156, 0.0125098, 0.05896, -0.00328125, 0.171247, -0.00489277, 9.82223, -0.0305176, -0.0305176, 0.0457764, 20.9599, 91696.2
4882, 0.000820312, 0.0125098, 0.05896, -0.00410156, 0.163908, -0.00733915, 9.79288, -0.0152588, 0.0610352, 0.106812, 20.9588, 91695.9
4892, 0, 0.0141504, 0.0615234, -0.00328125, 0.17614, -0.00733915, 9.82468, 0.106812, 0.0457764, 0.0152588, 20.9607, 91696
4912, -0.000410156, 0.0158936, 0.0611133, -0.00328125, 0.163908, -0.0122319, 9.82468, 0.0915527, 0.0915527, 0.0457764, 20.9598, 91696.1
4922, -0.000410156, 0.0145605, 0.0657275, -0.00328125, 0.166354, -0.00733915, 9.80266, 0.0610352, 0.0610352, -0.0152588, 20.9645, 91696.6
4932, -0.00205078, 0.0145605, 0.0657275, -0.00287109, 0.17614, 0, 9.81, 0.183105, 0, 0, 20.9586, 91695.8
4942, 0.00246094, 0.0150732, 0.060293, -0.00246094, 0.156569, 0.00489277, 9.80021, 0.137329, -0.0457764, 0.152588, 20.9544, 91696.1
4952, 0, 0.0154834, 0.0623437, -0.00410156, 0.14189, -0.00733915, 9.78798, 0.0457764, 0.0305176, 0.0305176, 20.9533, 91695.8
4962, 0.00164062, 0.0137402, 0.0635742, -0.00246094, 0.134551, -0.0122319, 9.82223, 0, 0.0457764, 0, 20.9494, 91696.4
4972, 0.00164062, 0.0133301, 0.0619336, -0.00246094, 0.132105, -0.0366958, 9.78554, 0.0305176, -0.0152588, 0, 20.953, 91696
4992, -0.000410156, 0.0129199, 0.0627539, -0.00123047, 0.136998, -0.0171247, 9.81979, -0.0457764, 0.0305176, 0.0457764, 20.9546, 91696.2
5002, 0.000820312, 0.0137402, 0.0556787, -0.00246094, 0.110087, -0.0146783, 9.81, -0.0457764, 0.0305176, -0.0152588, 20.9591, 91696.2
5012, 0.000820312, 0.0145605, 0.0615234, -0.00369141, 0.129658, -0.00733915, 9.81734, 0.12207, -0.0762939, -0.0152588, 20.955, 91696.1
5022, 0.000410156, 0.0154834, 0.0635742, -0.00369141, 0.122319, 0.00733915, 9.80511, 0.0915527, 0.0457764, 0.0610352, 20.9569, 91695.6
5032, 0.000410156, 0.0167139, 0.0635742, -0.00205078, 0.122319, 0, 9.80266, 0.0915527, -0.0152588, 0.0305176, 20.9548, 91696.2
5042, 0.000820312, 0.0167139, 0.0635742, -0.00502441, 0.117426, 0.0195711, 9.79043, 0.152588, -0.0457764, 0, 20.9543, 91696.4
5052, 0.000820312, 0.0154834, 0.0598828, -0.00328125, 0.105195, 0.0293566, 9.79777, 0.0915527, 0, 0.0610352, 20.9566, 91696.7
5062, 0, 0.0145605, 0.0639844, -0.00205078, 0.117426, 0.0122319, 9.80511, 0.183105, 0, 0.12207, 20.9616, 91696.3
5082, 0.00123047, 0.0145605, 0.0611133, -0.000410156, 0.122319, -0.00978554, 9.78554, 0.183105, 0.0610352, 0.0915527, 20.9543, 91696.2
5092, 0.000820312, 0.0145605, 0.0611133, -0.00205078, 0.112534, -0.0195711, 9.80511, 0.12207, 0.0610352, 0.0762939, 20.9628, 91696.4
5102, 0.00164062, 0.0141504, 0.0627539, -0.00205078, 0.119873, -0.0269102, 9.82223, 0.106812, -0.0305176, 0.0610352, 20.9766, 91696.4
5112, -0.000410156, 0.0141504, 0.0615234, -0.00287109, 0.124766, -0.00244638, 9.79777, 0.0610352, -0.0152588, 0.0610352, 20.9559, 91696.1
5122, 0, 0.0129199, 0.0611133, -0.0070752, 0.122319, -0.0171247, 9.81245, 0.137329, 0.0610352, 0.0610352, 20.9561, 91696.7
5132, 0, 0.0125098, 0.0639844, -0.0070752, 0.129658, 0.00978554, 9.7782, 0.106812, 0, 0, 20.9521, 91695.9
5142, -0.000820312, 0.0125098, 0.0639844, -0.00410156, 0.144337, -0.0122319, 9.81, -0.0305176, 0.473022, 0.0762939, 20.9593, 91696.6
5162, 0.00164062, 0.0145605, 0.0627539, -0.00205078, 0.163908, -0.0220175, 9.72193, 0.0762939, 0.0457764, 0.0762939, 20.9616, 91696.2
5172, 0.00123047, 0.0137402, 0.0619336, -0.00410156, 0.102748, -0.0195711, 9.83202, 0.0762939, -0.0762939, 0.0457764, 20.953, 91696.6
5182, 0.00123047, 0.0141504, 0.0598828, -0.00410156, 0.129658, -0.00733915, 9.76597, 0.0457764, 0.259399, 0.0762939, 20.959, 91696.3
5192, 0.00205078, 0.0141504, 0.0598828, -0.00328125, 0.11498, -0.0146783, 9.83691, -0.0305176, 0, 0.0305176, 20.9607, 91696.2
5202, -0.000820312, 0.0150732, 0.0639844, -0.00287109, 0.159015, -0.0171247, 9.78309, 0.0610352, -0.106812, 0.0915527, 20.9425, 91695.7
5212, 0.000410156, 0.0145605, 0.0615234, -0.00287109, 0.132105, -0.00733915, 9.8467, 0.0152588, 0.0915527, 0.0762939, 20.9484, 91696.5
5222, 0.000410156, 0.0133301, 0.0611133, -0.00205078, 0.168801, 0.00489277, 9.81, 0.0152588, -0.0305176, 0.0305176, 20.9575, 91696.1
5232, 0.000820312, 0.0129199, 0.060293, -0.00205078, 0.181032, -0.00244638, 9.80755, 0.0457764, 0.0610352, -0.0305176, 20.9515, 91696.1
5252, 0.00123047, 0.0141504, 0.0623437, -0.00410156, 0.159015, -0.0122319, 9.80511, 0.0305176, 0.0762939, 0.0305176, 20.9592, 91696.2
5262, 0.00123047, 0.0116895, 0.0644971, -0.00123047, 0.149229, -0.0220175, 9.82223, 0.0305176, -0.0152588, 0.0610352, 20.9652, 91696.6
5272, 0.000410156, 0.0163037, 0.0598828, -0.00246094, 0.159015, -0.0122319, 9.81734, -0.0152588, -0.0305176, 0.106812, 20.9507, 91696.3
5282, -0.00123047, 0.0137402, 0.0631641, -0.00246094, 0.136998, -0.031803, 9.80511, 0.0152588, -0.0305176, 0.0457764, 20.9615, 91696.4
5292, -0.00123047, 0.0120996, 0.0619336, -0.00502441, 0.144337, -0.0342494, 9.78064, 0.106812, 0.0457764, 0.0457764, 20.9556, 91696.4
5302, 0.00164062, 0.0120996, 0.0619336, -0.00369141, 0.122319, -0.0171247, 9.83691, -0.0457764, -0.106812, 0.0610352, 20.9621, 91696.3
5312, 0.00205078, 0.0145605, 0.0623437, -0.00164062, 0.136998, -0.0171247, 9.80021, -0.0305176, 0.0152588, -0.0152588, 20.946, 91696.5
5332, 0.00123047, 0.0137402, 0.0627539, -0.00451172, 0.127212, -0.00733915, 9.80266, 0.0152588, 0.106812, 0.0152588, 20.943, 91696.7
5342, 0.00123047, 0.0141504, 0.0615234, -0.00451172, 0.146783, -0.00244638, 9.81489, 0.0457764, -0.0152588, -0.0152588, 20.9436, 91696
5352, 0.000820312, 0.0141504, 0.0615234, -0.00369141, 0.136998, 0.00733915, 9.78798, -0.0915527, -0.0457764, 0.152588, 20.9615, 91696.1
5362, -0.00123047, 0.0154834, 0.060293, -0.00205078, 0.132105, 0.0195711, 9.81245, 0.0152588, 0.12207, 0.0610352, 20.9621, 91697
5372, -0.00205078, 0.0120996, 0.05896, -0.00369141, 0.14189, 0.00489277, 9.81, -0.0610352, 0.0457764, 0.0457764, 20.9526, 91696.2
5382, 0.00205078, 0.0129199, 0.0615234, -0.00328125, 0.129658, -0.00733915, 9.81245, -0.0305176, -0.0305176, -0.0152588, 20.953, 91696.7
5392, 0.00205078, 0.0158936, 0.0607031, -0.00328125, 0.14189, -0.00733915, 9.80755, 0.0305176, -0.0152588, 0.0305176, 20.9551, 91696.3
5402, 0.00205078, 0.0158936, 0.0607031, -0.00410156, 0.132105, 0, 9.80755, -0.0915527, 0, 0.0457764, 20.9563, 91696.4
5422, -0.000820312, 0.0129199, 0.0615234, -0.00369141, 0.124766, -0.0171247, 9.79288, 0.0305176, -0.0457764, 0.0610352, 20.9554, 91696.3
5432, -0.00123047, 0.0137402, 0.0623437, -0.00164062, 0.127212, -0.0293566, 9.80021, -0.0610352, 0.0305176, 0.0610352, 20.9561, 91696.1
5442, 0.000820312, 0.0141504, 0.0615234, -0.00164062, 0.124766, -0.0122319, 9.81489, -0.0610352, 0.0152588, 0.0152588, 20.9548, 91695.9
5452, 0.000820312, 0.0133301, 0.0639844, -0.00502441, 0.129658, -0.00244638, 9.80021, -0.0610352, -0.0915527, 0.0305176, 20.953, 91696.5
5462, -0.000410156, 0.0133301, 0.0639844, -0.00369141, 0.134551, -0.00244638, 9.78798, -0.0457764, 0.0610352, -0.0762939, 20.9615, 91696.2
5472, 0.000410156, 0.0158936, 0.0631641, 0, 0.144337, 0.00244638, 9.79532, -0.0457764, 0, -0.0457764, 20.9555, 91696.3
5482, 0.00123047, 0.0150732, 0.0631641, -0.00451172, 0.122319, 0.0146783, 9.81734, 0.0152588, 0.137329, -0.0610352, 20.9558, 91696
5502, -0.000820312, 0.0141504, 0.0619336, -0.00287109, 0.11498, 0.0195711, 9.80511, -0.0457764, 0.0762939, 0.0152588, 20.9545, 91695.9
5512, -0.000820312, 0.0141504, 0.0619336, -0.00410156, 0.119873, 0.00733915, 9.80511, -0.0152588, -0.0152588, 0.0305176, 20.9518, 91696.4
5522, 0.00205078, 0.0158936, 0.0627539, -0.00164062, 0.124766, 0.00733915, 9.79043, -0.0457764, -0.0152588, 0.0152588, 20.9606, 91696.7
5532, 0.00164062, 0.0154834, 0.0627539, -0.00369141, 0.11498, 0.00978554, 9.81489, -0.0305176, 0.0762939, 0.0305176, 20.9618, 91696
5542, 0.00205078, 0.0158936, 0.0619336, -0.00369141, 0.129658, -0.00978554, 9.81489, -0.0610352, 0.0610352, 0.0152588, 20.9488, 91696.1
5552, 0.00205078, 0.0137402, 0.0615234, -0.00369141, 0.124766, -0.0244638, 9.79288, -0.0457764, 0.0305176, 0, 20.9457, 91696.1
5562, 0.00123047, 0.0137402, 0.0615234, -0.00543457, 0.127212, -0.00733915, 9.81, 0, 0.0610352, 0.0457764, 20.9419, 91696.2
5572, 0.00123047, 0.0158936, 0.0615234, -0.00410156, 0.100302, 0, 9.80021, 0.0305176, 0.0457764, 0.0152588, 20.9562, 91696.5
5592, -0.000410156, 0.0154834, 0.0627539, -0.000410156, 0.105195, -0.0146783, 9.81979, -0.0762939, 0.0457764, -0.0152588, 20.9528, 91696.1
5602, -0.000410156, 0.0129199, 0.0615234, -0.000410156, 0.136998, -0.00733915, 9.76597, -0.12207, 0.0305176, 0.0305176, 20.9522, 91695.9
5612, 0.00164062, 0.0129199, 0.0615234, -0.00164062, 0.119873, -0.00489277, 9.81979, -0.137329, 0.0610352, -0.0152588, 20.9532, 91696.2
5622, 0.00123047, 0.0150732, 0.0635742, -0.00246094, 0.134551, 0.00733915, 9.81245, 0.0152588, 0, 0, 20.9558, 91696.2
5632, -0.000820312, 0.0145605, 0.0635742, -0.00246094, 0.124766, 0.00733915, 9.82468, -0.0762939, -0.0610352, 0, 20.9553, 91695.8
5642, -0.00123047, 0.0145605, 0.0639844, -0.00410156, 0.154122, 0.0122319, 9.78064, -0.0457764, -0.0152588, 0.0457764, 20.9505, 91696.5
5652, 0.000820312, 0.0150732, 0.0619336, -0.00410156, 0.124766, 0.00244638, 9.79043, -0.106812, 0.0915527, 0.0305176, 20.9495, 91696
5672, 0.00123047, 0.0145605, 0.0635742, -0.00369141, 0.151676, 0.00978554, 9.82712, -0.0915527, -0.0152588, -0.0152588, 20.9499, 91696.5
5682, -0.000410156, 0.0129199, 0.0635742, -0.00369141, 0.156569, 0.00244638, 9.79288, -0.0762939, 0.12207, 0, 20.949, 91695.7
5692, 0.000410156, 0.0129199, 0.0598828, -0.00369141, 0.132105, -0.0220175, 9.84425, -0.0762939, 0.137329, 0, 20.9502, 91695.7
5702, 0.000410156, 0.010459, 0.0619336, -0.00369141, 0.166354, -0.0171247, 9.83446, 0.0152588, -0.0457764, -0.0152588, 20.9538, 91696.8
5712, 0.000410156, 0.0137402, 0.0598828, -0.00369141, 0.173693, -0.0171247, 9.78554, -0.0915527, 0.213623, -0.0152588, 20.9537, 91696.6
5722, 0.000410156, 0.0137402, 0.0598828, -0.00451172, 0.122319, 0.00244638, 9.85648, 0.0305176, -0.167847, 0.0305176, 20.9466, 91696.1
5732, 0, 0.0141504, 0.0619336, -0.00205078, 0.163908, -0.00244638, 9.76107, 0.0152588, 0.183105, -0.0152588, 20.95, 91696.4
5742, -0.00123047, 0.0133301, 0.0627539, -0.00369141, 0.119873, -0.00244638, 9.86137, 0, -0.244141, -0.0152588, 20.9541, 91696.5
5762, 0.00123047, 0.0116895, 0.060293, -0.00369141, 0.134551, -0.00489277, 9.80755, -0.0305176, -0.198364, 0.0152588, 20.9433, 91696
5772, -0.000820312, 0.0116895, 0.060293, -0.00287109, 0.132105, -0.0122319, 9.78554, -0.0610352, -0.0610352, 0.0152588, 20.9582, 91695.8
5782, 0, 0.0167139, 0.0639844, -0.00164062, 0.134551, -0.0244638, 9.80021, -0.0762939, 0.106812, -0.0457764, 20.9444, 91696
5792, -0.00123047, 0.0141504, 0.0639844, -0.00205078, 0.154122, -0.0269102, 9.7733, -0.152588, 0.0457764, -0.0610352, 20.9499, 91695.9
5802, -0.000820312, 0.0154834, 0.0611133, -0.00625488, 0.127212, -0.0171247, 9.8418, -0.152588, 0.0305176, -0.0305176, 20.9547, 91696.5
5812, 0, 0.0141504, 0.0598828, -0.00625488, 0.146783, 0.00489277, 9.78554, -0.12207, -0.0915527, 0.0152588, 20.9443, 91695.5
5822, 0, 0.0141504, 0.0598828, -0.00328125, 0.132105, -0.00489277, 9.80021, -0.152588, 0.305176, -0.0152588, 20.954, 91696.3
5842, 0.000820312, 0.0141504, 0.0619336, -0.00328125, 0.134551, 0.00733915, 9.79532, -0.0457764, -0.0457764, 0.0915527, 20.9563, 91696
5852, 0.000820312, 0.0133301, 0.0627539, -0.00584473, 0.122319, -0.00244638, 9.80266, -0.137329, -0.0457764, 0.0152588, 20.9443, 91695.8
5862, 0.00123047, 0.0150732, 0.0607031, -0.00584473, 0.110087, 0, 9.81734, -0.183105, 0.152588, 0.0610352, 20.9586, 91695.9
5872, 0.00123047, 0.0133301, 0.0627539, -0.00246094, 0.095409, -0.00978554, 9.83446, -0.0915527, -0.0915527, 0.0457764, 20.9585, 91696
5882, -0.00123047, 0.0133301, 0.0627539, -0.00246094, 0.132105, -0.0220175, 9.78309, -0.0457764, 0.0152588, -0.0457764, 20.9511, 91696
5892, 0.000410156, 0.0154834, 0.0627539, -0.00287109, 0.107641, 0, 9.80021, -0.0305176, 0.0457764, -0.0610352, 20.9428, 91695.8
5902, 0.000820312, 0.0125098, 0.0627539, -0.00328125, 0.119873, 0.00489277, 9.78798, -0.152588, 0.137329, 0.0457764, 20.9458, 91696.1
5912, 0.00164062, 0.0116895, 0.0623437, -0.00328125, 0.105195, 0.0171247, 9.79777, -0.228882, 0.183105, 0, 20.9534, 91695.8
5932, 0.00287109, 0.0154834, 0.0631641, -0.00246094, 0.149229, 0.0146783, 9.75618, -0.0457764, -0.0610352, 0.0610352, 20.9552, 91695.7
5942, 0.00205078, 0.0133301, 0.0623437, -0.00246094, 0.112534, 0.0146783, 9.82712, -0.12207, 0.0762939, 0.0152588, 20.9485, 91696
5952, 0.000820312, 0.0137402, 0.060293, -0.00328125, 0.117426, 0, 9.86382, -0.0305176, -0.0152588, 0.0610352, 20.9507, 91696.1
5962, 0, 0.0133301, 0.0615234, -0.00164062, 0.195711, 0.0122319, 9.68279, -0.152588, 0.213623, 0.0152588, 20.954, 91695.8
5972, 0, 0.0158936, 0.0615234, -0.00164062, 0.063606, -0.0122319, 9.92498, 0.0762939, -0.289917, 0.0305176, 20.9578, 91696.1
5982, 0.00164062, 0.0158936, 0.0615234, -0.00410156, 0.20305, -0.0195711, 9.70236, -0.0915527, 0.396728, -0.0305176, 20.9633, 91695.5
5992, -0.000820312, 0.0141504, 0.0619336, -0.00451172, 0.0978554, -0.0293566, 9.90296, -0.0457764, -0.473022, -0.0152588, 20.9568, 91696.7
6002, -0.000410156, 0.0141504, 0.0627539, -0.00205078, 0.166354, -0.0171247, 9.78309, 0, 0.579834, 0.0152588, 20.9518, 91696.4
6022, 0, 0.0137402, 0.0611133, -0.00287109, 0.156569, 0.00978554, 9.82957, -0.0915527, 0.183105, -0.0305176, 20.9591, 91696.4
6032, 0, 0.0137402, 0.0611133, -0.00328125, 0.163908, 0.00978554, 9.77086, -0.0610352, 0, 0.0305176, 20.9505, 91696.3
6042, 0, 0.0154834, 0.0623437, -0.00328125, 0.136998, 0.00978554, 9.8418, -0.0915527, -0.0152588, 0.0457764, 20.9537, 91695.6
6052, -0.000410156, 0.0137402, 0.0631641, -0.00328125, 0.166354, 0.00489277, 9.79288, -0.167847, 0.213623, -0.0305176, 20.9571, 91696.3
6062, 0.000410156, 0.0137402, 0.0615234, -0.00328125, 0.136998, -0.00733915, 9.81245, -0.0915527, -0.228882, 0.0457764, 20.9426, 91695.7
6072, 0, 0.0141504, 0.0619336, -0.00328125, 0.144337, -0.0195711, 9.80021, -0.183105, 0.259399, -0.0762939, 20.9558, 91696.1
6082, 0, 0.0141504, 0.0615234, -0.00543457, 0.144337, -0.0244638, 9.79777, -0.152588, -0.137329, -0.0152588, 20.9523, 91696.4
6102, 0.00164062, 0.0133301, 0.0635742, -0.00205078, 0.136998, -0.0220175, 9.80266, -0.0762939, 0.0152588, -0.0305176, 20.9557, 91695.8
6112, 0.00123047, 0.0150732, 0.0611133, -0.00205078, 0.127212, -0.00978554, 9.7782, -0.0457764, 0.0762939, -0.0915527, 20.9515, 91696.3
6122, -0.000820312, 0.0145605, 0.0627539, -0.00205078, 0.110087, 0.0171247, 9.81489, -0.0152588, 0.0152588, -0.0152588, 20.9508, 91696.3
6132, -0.000820312, 0.017124, 0.0623437, -0.00205078, 0.136998, 0.0171247, 9.80266, -0.106812, -0.0610352, -0.0152588, 20.9517, 91696.2
6142, 0, 0.017124, 0.0623437, -0.00287109, 0.124766, -0.00978554, 9.81734, -0.167847, 0.12207, 0.0305176, 20.96, 91695.7
6152, 0.00123047, 0.0141504, 0.0623437, -0.00369141, 0.14189, -0.00489277, 9.81, -0.106812, -0.0915527, -0.0610352, 20.9569, 91696.1
6162, -0.000820312, 0.0158936, 0.0611133, -0.00287109, 0.127212, 0.00978554, 9.80511, -0.152588, 0.0915527, 0.0152588, 20.9494, 91696
6172, -0.000820312, 0.0125098, 0.0619336, -0.00369141, 0.132105, -0.0171247, 9.80021, -0.0762939, -0.137329, -0.0152588, 20.961, 91696.1
6192, 0.000820312, 0.0125098, 0.0631641, -0.00410156, 0.156569, -0.0244638, 9.80266, -0.0305176, -0.0915527, -0.0457764, 20.9409, 91696.1
6202, 0.000410156, 0.0154834, 0.0631641, -0.00287109, 0.139444, -0.0171247, 9.81245, -0.0610352, 0, -0.0457764, 20.9538, 91695.9
6212, 0.00410156, 0.0158936, 0.0657275, -0.00287109, 0.136998, -0.00733915, 9.80021, -0.167847, -0.0152588, -0.0457764, 20.9577, 91696.2
6222, 0.000410156, 0.0145605, 0.0611133, -0.00287109, 0.161461, 0.00489277, 9.80021, -0.106812, 0, -0.0457764, 20.9528, 91696.4
6232, 0.00164062, 0.0145605, 0.0635742, -0.00287109, 0.149229, 0, 9.81245, -0.0762939, 0, 0.0305176, 20.9566, 91696.3
6242, 0.00164062, 0.0145605, 0.0635742, -0.00451172, 0.146783, 0.00489277, 9.80266, -0.12207, 0, -0.0152588, 20.9578, 91695.8
6252, -0.000820312, 0.0120996, 0.05896, -0.00369141, 0.136998, 0.00733915, 9.81489, -0.0457764, 0, -0.0152588, 20.9558, 91696.2
6272, 0, 0.0133301, 0.0653174, -0.00451172, 0.112534, -0.0171247, 9.80755, -0.0915527, 0.0610352, 0.0152588, 20.9533, 91696.5
6282, 0.000410156, 0.0150732, 0.0619336, -0.00451172, 0.117426, -0.0146783, 9.80755, 0.0610352, 0.0457764, 0.0152588, 20.9543, 91696.4
6292, 0.000410156, 0.0150732, 0.0607031, -0.00369141, 0.107641, -0.00733915, 9.82468, -0.0762939, 0.0915527, 0.0457764, 20.952, 91696.1
6302, 0, 0.0120996, 0.0607031, -0.00205078, 0.102748, -0.0220175, 9.81489, -0.0457764, 0, 0, 20.9507, 91695.7
6312, 0.00164062, 0.0129199, 0.0623437, -0.00287109, 0.122319, 0.00978554, 9.80266, -0.12207, -0.0915527, -0.0305176, 20.9603, 91696.2
6322, 0.00287109, 0.0120996, 0.0623437, -0.00410156, 0.144337, 0.0171247, 9.76841, -0.0915527, 0.198364, -0.0305176, 20.9581, 91696
6332, 0, 0.0129199, 0.0615234, -0.00410156, 0.0856234, 0.00244638, 9.83691, -0.12207, 0.152588, -0.0152588, 20.955, 91696.3
6342, 0, 0.0158936, 0.0594727, -0.00369141, 0.136998, -0.00244638, 9.81245, -0.0610352, -0.106812, 0.0152588, 20.9518, 91696.3
6362, 0.00123047, 0.0141504, 0.0607031, -0.00451172, 0.127212, 0.0195711, 9.81245, -0.167847, 0.228882, 0.0152588, 20.9645, 91696.4
6372, 0, 0.0116895, 0.0619336, -0.00584473, 0.11498, -0.0146783, 9.81, -0.0915527, 0.106812, 0.0152588, 20.9564, 91696
6382, 0.000820312, 0.0120996, 0.0598828, -0.00328125, 0.149229, -0.0171247, 9.80755, -0.0915527, -0.12207, 0.0152588, 20.9505, 91696.3
6392, 0.000820312, 0.0129199, 0.0627539, -0.00328125, 0.146783, -0.0269102, 9.82468, -0.0457764, 0.0152588, 0.0457764, 20.953, 91696.6
6402, 0.000820312, 0.0129199, 0.0627539, -0.00451172, 0.149229, -0.0195711, 9.81489, 0, 0.0305176, -0.0152588, 20.9609, 91696.4
6412, 0.00205078, 0.0154834, 0.0611133, -0.00410156, 0.14189, -0.00978554, 9.79532, -0.0610352, 0.12207, -0.0152588, 20.9533, 91695.7
6422, 0, 0.0129199, 0.0607031, -0.00205078, 0.171247, 0.00733915, 9.79777, -0.12207, 0.12207, -0.0457764, 20.9509, 91696
6442, 0.00164062, 0.0141504, 0.0615234, -0.00451172, 0.178586, 0.00489277, 9.76107, -0.0152588, 0.0457764, -0.0610352, 20.9486, 91696.7
6452, 0.00164062, 0.0141504, 0.0615234, -0.00123047, 0.124766, 0.00244638, 9.88339, -0.0610352, 0.12207, 0.0457764, 20.9753, 91696
6462, -0.000410156, 0.0150732, 0.0631641, -0.00123047, 0.185925, 0.0244638, 9.7415, -0.152588, -0.183105, 0, 20.955, 91695.8
6472, 0, 0.0145605, 0.0607031, -0.00287109, 0.122319, -0.0195711, 9.86137, -0.0610352, 0.38147, 0, 20.9579, 91696.5
6482, 0.00287109, 0.0125098, 0.0619336, -0.00287109, 0.207943, -0.0195711, 9.76597, -0.0305176, -0.350952, 0.0152588, 20.9602, 91695.9
6492, 0.000410156, 0.0125098, 0.0644971, -0.00287109, 0.095409, -0.0342494, 9.87361, -0.0610352, 0.289917, 0.0610352, 20.9472, 91695.6
6502, 0.000410156, 0.0125098, 0.0615234, -0.00328125, 0.195711, -0.0244638, 9.75863, -0.12207, -0.0915527, -0.0457764, 20.9555, 91696.1
6512, 0.000820312, 0.0158936, 0.0615234, -0.00369141, 0.110087, -0.0171247, 9.88095, -0.152588, 0.0915527, -0.0457764, 20.9508, 91696
6532, -0.00164062, 0.0116895, 0.0627539, -0.00287109, 0.134551, 0.0171247, 9.81489, -0.0305176, 0.0305176, -0.0152588, 20.9647, 91695.9
6542, -0.000410156, 0.0133301, 0.0639844, -0.00287109, 0.110087, 0.0244638, 9.83936, -0.0762939, 0.0457764, -0.0152588, 20.9557, 91695.9
6552, -0.000410156, 0.0141504, 0.060293, -0.00287109, 0.144337, 0.0171247, 9.76841, -0.0610352, -0.0152588, -0.0305176, 20.9457, 91696.2
6562, 0.000410156, 0.0141504, 0.060293, -0.00451172, 0.100302, 0.00978554, 9.83446, -0.0457764, 0.0305176, 0.0915527, 20.951, 91696.2
6572, -0.00164062, 0.0116895, 0.0615234, -0.00205078, 0.127212, 0.00733915, 9.77086, -0.0152588, 0.0457764, 0.0152588, 20.9538, 91696.3
6582, -0.00164062, 0.0120996, 0.0619336, -0.00246094, 0.0929626, -0.00733915, 9.81489, 0, 0.0610352, 0, 20.957, 91696.5
6592, 0.000410156, 0.0129199, 0.0619336, -0.00205078, 0.112534, -0.00978554, 9.78798, 0.0305176, 0.0610352, 0.0305176, 20.958, 91696.8
6612, 0.00205078, 0.0150732, 0.0619336, -0.00410156, 0.110087, -0.00489277, 9.79043, -0.0457764, 0.0152588, 0.0457764, 20.9481, 91696.4
6622, 0.00123047, 0.0112793, 0.0619336, -0.00502441, 0.122319, -0.00733915, 9.7782, -0.0610352, 0.0152588, 0.0457764, 20.9628, 91696.1
6632, 0.000410156, 0.0125098, 0.0635742, -0.00164062, 0.117426, -0.0342494, 9.81, -0.0762939, 0.0762939, 0.0305176, 20.9561, 91696.4
6642, 0, 0.0116895, 0.0615234, -0.00451172, 0.14189, -0.0342494, 9.78064, -0.137329, -0.0762939, -0.0305176, 20.9454, 91696
6652, 0, 0.0137402, 0.0631641, -0.00451172, 0.122319, -0.0293566, 9.81489, -0.106812, 0.0305176, 0.0152588, 20.9475, 91696.1
6662, 0, 0.0137402, 0.0631641, -0.00328125, 0.136998, -0.0244638, 9.80021, -0.0762939, -0.0762939, -0.0305176, 20.9454, 91696
6672, 0.00164062, 0.0145605, 0.0635742, -0.00328125, 0.122319, -0.00489277, 9.82712, -0.0915527, 0.0915527, 0, 20.9495, 91696.3
6682, 0.00123047, 0.0145605, 0.0623437, -0.00246094, 0.159015, 0.00489277, 9.79532, -0.0915527, -0.137329, 0, 20.9597, 91695.7
6702, -0.000820312, 0.0137402, 0.0623437, -0.00369141, 0.159015, 0.00978554, 9.82957, -0.106812, -0.0762939, -0.0305176, 20.9501, 91696.1
6712, -0.000820312, 0.0137402, 0.0639844, -0.00246094, 0.136998, 0.0195711, 9.81734, -0.0152588, 0.12207, 0, 20.9488, 91696
6722, 0.00123047, 0.0154834, 0.0639844, -0.00369141, 0.151676, 0.0171247, 9.80511, -0.0610352, -0.0610352, 0.0305176, 20.9549, 91695.8
6732, 0.00164062, 0.0129199, 0.0623437, -0.00369141, 0.146783, -0.0195711, 9.81245, -0.0762939, 0.0915527, 0.0305176, 20.9593, 91695.9
6742, 0.000410156, 0.0137402, 0.0631641, -0.00205078, 0.144337, -0.00733915, 9.79532, -0.106812, -0.0305176, -0.0305176, 20.9457, 91696.1
6752, 0.00123047, 0.017124, 0.060293, -0.00205078, 0.149229, -0.0146783, 9.80755, -0.0762939, 0.0152588, 0.0610352, 20.9548, 91696.4
6762, 0.00123047, 0.0158936, 0.0631641, -0.00246094, 0.146783, -0.0391421, 9.81489, -0.183105, 0, 0.0305176, 20.9526, 91696.4
6782, 0.000820312, 0.0141504, 0.0653174, -0.00246094, 0.239746, -0.0562668, 9.68524, -0.12207, 0.0762939, 0.0152588, 20.9537, 91696.2
6792, 0.00123047, 0.0150732, 0.0639844, -0.00246094, 0.063606, -0.00733915, 9.93477, -0.0457764, -0.183105, -0.0152588, 20.9565, 91695.9
6802, 0, 0.0187646, 0.0619336, -0.00287109, 0.225067, -0.0122319, 9.69991, -0.0305176, 0.167847, -0.0457764, 20.9624, 91696
6812, 0.00123047, 0.0141504, 0.0644971, -0.00287109, 0.0831771, -0.0220175, 9.88339, 0, -0.228882, -0.0762939, 20.9563, 91695.8
6822, 0.00123047, 0.0141504, 0.0644971, -0.00246094, 0.188372, 0.0195711, 9.7415, -0.0762939, 0.350952, -0.0457764, 20.9452, 91696.2
6832, 0.000410156, 0.0150732, 0.0623437, -0.00328125, 0.112534, 0.00978554, 9.82468, -0.0457764, -0.259399, 0.0305176, 20.9566, 91695.9
6842, 0.000410156, 0.0158936, 0.0627539, -0.00205078, 0.129658, 0.00489277, 9.79532, -0.137329, 0.274658, -0.0152588, 20.9576, 91696.2
6852, -0.00246094, 0.0158936, 0.0623437, -0.00328125, 0.122319, 0.00733915, 9.80266, -0.152588, 0, 0.0610352, 20.9513, 91695.8
6872, 0, 0.0141504, 0.0607031, -0.00287109, 0.136998, -0.00489277, 9.78309, -0.152588, 0.183105, 0, 20.9563, 91696.2
6882, 0, 0.0141504, 0.0639844, -0.00205078, 0.110087, -0.0513741, 9.81245, -0.0915527, -0.0762939, 0.0152588, 20.9519, 91696.1
6892, -0.00164062, 0.0137402, 0.0619336, -0.00246094, 0.136998, -0.031803, 9.79043, -0.12207, 0.152588, 0, 20.9648, 91695.5
6902, 0, 0.0150732, 0.0611133, -0.00410156, 0.11498, -0.0220175, 9.82712, -0.137329, -0.12207, -0.0305176, 20.9644, 91695.6
6912, 0.000820312, 0.0145605, 0.0644971, -0.00410156, 0.156569, -0.0293566, 9.79777, -0.167847, 0.106812, -0.0457764, 20.9555, 91695.9
6922, 0.000820312, 0.0145605, 0.0635742, -0.00502441, 0.14189, 0.00978554, 9.81734, -0.106812, -0.0610352, -0.0457764, 20.959, 91696.2
6932, 0.00328125, 0.0145605, 0.0635742, -0.00369141, 0.134551, 0.00244638, 9.79777, 0, 0.0457764, 0.0762939, 20.9608, 91696
6952, 0.000410156, 0.0158936, 0.0619336, -0.00369141, 0.122319, 0.0146783, 9.79288, -0.137329, 0.0305176, 0.0152588, 20.9568, 91695.4
6962, 0.000820312, 0.0163037, 0.0623437, -0.00369141, 0.122319, -0.00733915, 9.79777, -0.0152588, -0.0305176, 0.0152588, 20.9614, 91696.1
6972, 0.000820312, 0.0163037, 0.0607031, -0.00410156, 0.119873, 0.00244638, 9.80021, 0.0152588, 0.0610352, 0.0152588, 20.9544, 91696.3
6982, 0, 0.0154834, 0.0607031, -0.00502441, 0.11498, -0.00733915, 9.80511, -0.0915527, -0.0152588, 0.106812, 20.9559, 91695.3
6992, -0.000410156, 0.0129199, 0.0623437, -0.00451172, 0.124766, -0.0244638, 9.80755, -0.0762939, 0.0305176, 0.0457764, 20.9524, 91695.8
7002, 0.00164062, 0.0150732, 0.0623437, -0.00369141, 0.112534, -0.0220175, 9.81, -0.0762939, -0.106812, 0.0152588, 20.9473, 91695.9
7012, 0.000410156, 0.0163037, 0.0644971, -0.00246094, 0.132105, -0.0171247, 9.80755, -0.0305176, 0.0152588, 0.0152588, 20.9606, 91695.5
7022, 0.000820312, 0.0133301, 0.0627539, -0.00246094, 0.139444, -0.0342494, 9.79043, -0.0915527, 0.0610352, 0, 20.959, 91696.6
7042, 0.000820312, 0.0154834, 0.0627539, -0.00123047, 0.136998, -0.0146783, 9.81979, -0.0915527, 0.0152588, 0.0152588, 20.9567, 91696.1
7052, -0.000820312, 0.0150732, 0.0631641, -0.00328125, 0.149229, -0.00489277, 9.80021, -0.0457764, 0.0152588, -0.0152588, 20.9624, 91696
7062, 0.00246094, 0.0167139, 0.0635742, -0.00369141, 0.161461, 0.00244638, 9.81245, 0.0457764, 0.0152588, -0.0610352, 20.9623, 91696.6
7072, 0.00164062, 0.0150732, 0.0635742, -0.00369141, 0.166354, -0.00244638, 9.81979, -0.0762939, 0.0457764, -0.0610352, 20.9721, 91695.9
7082, 0.00164062, 0.0150732, 0.0635742, -0.00328125, 0.166354, -0.0122319, 9.78309, -0.0305176, 0.0457764, 0, 20.9523, 91695.8
7092, -0.000820312, 0.0141504, 0.0631641, -0.00287109, 0.134551, -0.0342494, 9.82223, -0.0610352, -0.0152588, 0, 20.9619, 91696.6
7102, 0.00123047, 0.0145605, 0.0657275, -0.00246094, 0.149229, -0.0122319, 9.80755, -0.106812, 0, 0.0457764, 20.9619, 91696.4
7122, 0.00205078, 0.0154834, 0.0627539, -0.00369141, 0.163908, -0.0269102, 9.78798, -0.0457764, 0, 0.0305176, 20.9597, 91695.9
7132, 0.00205078, 0.0154834, 0.0598828, -0.00123047, 0.144337, -0.0415885, 9.81979, -0.0305176, 0.12207, -0.0305176, 20.9554, 91695.9
7142, -0.000820312, 0.0154834, 0.0598828, -0.00287109, 0.146783, -0.0391421, 9.81489, 0.0457764, -0.0152588, -0.0305176, 20.9623, 91696.1
7152, 0.00287109, 0.0150732, 0.0635742, -0.00287109, 0.134551, -0.0171247, 9.84914, 0.0610352, 0.0457764, -0.0457764, 20.9599, 91696
7162, 0.00328125, 0.0150732, 0.0615234, -0.00246094, 0.119873, 0.00244638, 9.80266, 0.137329, 0.0762939, -0.0152588, 20.9628, 91696.2
7172, 0.000820312, 0.0129199, 0.0627539, -0.00246094, 0.134551, 0.0562668, 9.7782, 0.0610352, -0.12207, 0.0305176, 20.9695, 91696.2
7182, 0.000820312, 0.0129199, 0.060293, -0.00287109, 0.136998, 0.0905162, 9.77575, -0.137329, 0.106812, 0.0457764, 20.9539, 91696.1
7192, 0.000410156, 0.0158936, 0.060293, -0.00369141, 0.156569, 0.117426, 9.74395, -0.152588, 0.0915527, 0.106812, 20.9563, 91696
7212, 0.00164062, 0.0116895, 0.0649072, -0.00369141, 0.129658, 0.0611596, 9.85159, 0.167847, 0.0610352, 0.152588, 20.9646, 91695.9
7222, 0.00164062, 0.0133301, 0.0627539, -0.00328125, 0.132105, -0.0220175, 9.84914, 0.396728, -0.152588, 0.167847, 20.9545, 91696.5
7232, 0.00123047, 0.0137402, 0.0627539, -0.00328125, 0.107641, -0.0562668, 9.86627, 0.335693, 0.137329, 0.137329, 20.958, 91696
7242, 0.00123047, 0.0137402, 0.0627539, -0.00328125, 0.11498, -0.0856234, 9.75618, 0.198364, -0.198364, 0.167847, 20.9523, 91696.3
7252, -0.000820312, 0.0163037, 0.0631641, -0.00328125, 0.0611596, -0.117426, 9.80021, 0.0762939, 0.152588, 0, 20.9657, 91696.2
7262, 0.00123047, 0.0120996, 0.0619336, -0.00748535, 0.100302, -0.146783, 9.76352, 0.12207, -0.183105, 0, 20.9542, 91695.9
7272, -0.000410156, 0.0141504, 0.0611133, -0.00584473, 0.0782843, -0.105195, 9.82468, 0.152588, 0.167847, -0.0610352, 20.9544, 91696.7
7292, -0.000410156, 0.0150732, 0.0639844, -0.00328125, 0.102748, 0.0220175, 9.83936, 0.274658, -0.0457764, -0.0152588, 20.9648, 91696
7302, 0, 0.0133301, 0.0644971, -0.00328125, 0.129658, 0.0611596, 9.82468, 0.457764, 0.0152588, 0.0305176, 20.9534, 91695.9
7312, 0.000820312, 0.0141504, 0.0607031, -0.00246094, 0.0978554, 0.119873, 9.88339, 0.396728, -0.198364, 0.0152588, 20.9569, 91696.2
7322, 0.00164062, 0.0125098, 0.0598828, -0.00451172, 0.159015, 0.132105, 9.76107, 0.259399, 0.183105, 0.106812, 20.9598, 91696.1
7332, 0.000820312, 0.0150732, 0.0623437, -0.00451172, 0.136998, 0.127212, 9.76352, 0.259399, -0.183105, 0.167847, 20.9548, 91696.4
7342, 0.000820312, 0.0150732, 0.0635742, -0.00205078, 0.136998, 0.0782843, 9.78798, 0.274658, 0.0915527, 0.198364, 20.9624, 91695.5
7352, 0.000410156, 0.0141504, 0.0635742, -0.00369141, 0.107641, 0.0220175, 9.82957, 0.335693, -0.213623, 0.213623, 20.9687, 91696.5
7362, -0.000410156, 0.017124, 0.0627539, -0.00328125, 0.156569, -0.0122319, 9.82712, 0.274658, 0, 0.167847, 20.9553, 91696
7382, -0.000410156, 0.0133301, 0.0615234, -0.00410156, 0.132105, -0.0880698, 9.76107, 0.259399, -0.12207, 0.0915527, 20.9648, 91696
7392, -0.000410156, 0.0133301, 0.0611133, -0.00369141, 0.146783, -0.110087, 9.81, 0.106812, 0.12207, 0.0152588, 20.969, 91696.1
7402, -0.000410156, 0.0150732, 0.0611133, -0.000820312, 0.144337, -0.0978554, 9.81979, 0.0457764, -0.183105, 0.0305176, 20.9515, 91696.5
7412, -0.000820312, 0.0163037, 0.060293, -0.00502441, 0.171247, -0.0415885, 9.78554, 0.0457764, -0.0610352, 0.0152588, 20.9552, 91695.9
7422, 0.00287109, 0.0158936, 0.0635742, -0.00205078, 0.195711, -0.0220175, 9.79777, -0.0305176, 0.0457764, 0.0457764, 20.9621, 91696.1
7432, 0.00246094, 0.0145605, 0.0631641, -0.00123047, 0.17614, -0.00733915, 9.80021, -0.106812, 0.0610352, 0.0762939, 20.9427, 91695.9
7442, 0.000410156, 0.0154834, 0.0611133, -0.00123047, 0.178586, -0.00733915, 9.81245, -0.12207, 0.0457764, 0.0305176, 20.9624, 91696.7
7452, 0.000410156, 0.0154834, 0.0611133, -0.00246094, 0.198157, -0.0220175, 9.85404, -0.0762939, 0.152588, 0, 20.9561, 91695.3
7472, 0.00205078, 0.0145605, 0.0635742, -0.00328125, 0.188372, 0.0146783, 9.80266, -0.0305176, 0.0305176, -0.0305176, 20.9504, 91696.5
7482, 0, 0.0141504, 0.0611133, -0.00451172, 0.195711, 0.031803, 9.80511, 0.0305176, 0.12207, -0.0305176, 20.9557, 91695.9
7492, 0.00287109, 0.0150732, 0.0631641, -0.00451172, 0.173693, 0.0269102, 9.80755, 0, 0.0457764, 0.0305176, 20.9657, 91696.2
7502, 0.00287109, 0.0150732, 0.0631641, -0.00328125, 0.183479, 0.00978554, 9.82712, -0.0762939, 0.0152588, 0.0152588, 20.9637, 91696.2
7512, 0.000410156, 0.0141504, 0.0619336, -0.00369141, 0.149229, -0.00978554, 9.82223, -0.0762939, -0.0610352, 0, 20.959, 91696.1
7522, -0.000410156, 0.0125098, 0.0619336, -0.00410156, 0.159015, -0.0391421, 9.79777, -0.0610352, 0.0305176, 0.0610352, 20.9511, 91696.9
7532, 0.00246094, 0.0133301, 0.0623437, -0.00369141, 0.159015, -0.0269102, 9.78554, -0.12207, 0.0457764, -0.0152588, 20.9499, 91696.3
7552, 0.00246094, 0.0158936, 0.0623437, -0.00205078, 0.14189, 0.0269102, 9.79288, -0.0457764, 0, 0.0152588, 20.9529, 91696.9
7562, 0.000410156, 0.0129199, 0.0623437, -0.000410156, 0.132105, 0.0122319, 9.82223, 0.0152588, 0.0915527, 0.0152588, 20.9579, 91696.3
7572, 0.00205078, 0.0129199, 0.0623437, -0.00205078, 0.107641, 0.0342494, 9.76107, -0.0305176, 0.0457764, 0, 20.951, 91696.8
7582, 0.000820312, 0.0158936, 0.0631641, -0.00164062, 0.139444, 0.0366958, 9.81979, -0.0152588, -0.0762939, -0.0610352, 20.9515, 91695.9
7592, 0.00205078, 0.0137402, 0.0607031, -0.00164062, 0.0709451, 0.0611596, 9.77575, 0.0152588, 0.0915527, 0.0152588, 20.9618, 91697.2
7602, 0.00164062, 0.0137402, 0.0619336, -0.00410156, 0.0978554, 0.0415885, 9.81245, -0.0762939, -0.0457764, 0, 20.9532, 91696.2
7612, 0.00164062, 0.0154834, 0.0619336, -0.00369141, 0.0660524, 0.0293566, 9.80755, -0.0610352, 0.12207, 0.0610352, 20.9557, 91695.9
7622, 0.00123047, 0.0133301, 0.0619336, -0.000410156, 0.0709451, 0.0195711, 9.77575, 0.0610352, 0, 0.0610352, 20.9514, 91696.5
7642, 0.00164062, 0.0129199, 0.0607031, -0.00328125, 0.0391421, 0.0122319, 9.68034, -0.0762939, -0.152588, -0.0305176, 20.9597, 91696.3
7652, 0.00164062, 0.0129199, 0.0627539, -0.00328125, 0.154122, -0.00244638, 9.89318, -0.152588, 0.198364, -0.0457764, 20.9611, 91696
7662, 0.00164062, 0.0137402, 0.0627539, -0.00164062, 0.0293566, -0.00733915, 9.75129, -0.0305176, -0.137329, -0.0152588, 20.9624, 91695.8
7672, 0.00123047, 0.0154834, 0.0623437, -0.00410156, 0.166354, -0.00489277, 9.84914, -0.0915527, 0, 0.0762939, 20.9591, 91696
7682, -0.000410156, 0.0167139, 0.0619336, -0.00410156, 0.0684988, -0.00978554, 9.76107, -0.0152588, -0.106812, 0, 20.9669, 91696.8
7692, -0.000410156, 0.0154834, 0.0631641, -0.00369141, 0.146783, 0.0146783, 9.82712, -0.0915527, 0.137329, 0.0152588, 20.9726, 91696.1
7702, 0.00164062, 0.0150732, 0.0623437, -0.00369141, 0.110087, 0.0464813, 9.81245, -0.0457764, -0.0762939, -0.0152588, 20.9646, 91696
7722, 0.000820312, 0.0141504, 0.0644971, -0.00369141, 0.178586, 0.0195711, 9.80755, 0, 0.0305176, 0, 20.9497, 91696.4
7732, 0.00246094, 0.0150732, 0.0611133, -0.00451172, 0.185925, 0.0171247, 9.81734, 0.0305176, -0.12207, 0.0610352, 20.9538, 91696
7742, -0.000410156, 0.0137402, 0.0649072, -0.00164062, 0.17614, -0.00978554, 9.82712, -0.0915527, 0.12207, 0.0305176, 20.9579, 91696.3
7752, 0.000820312, 0.0137402, 0.0615234, -0.00164062, 0.173693, -0.00489277, 9.81245, -0.0152588, -0.0762939, 0.0305176, 20.9633, 91696.5
7762, 0.000820312, 0.0137402, 0.0631641, -0.00205078, 0.185925, -0.00978554, 9.81734, -0.0457764, -0.106812, -0.0305176, 20.96, 91696.1
7772, 0.000410156, 0.0129199, 0.0631641, -0.00287109, 0.185925, -0.0146783, 9.80021, -0.0915527, 0.289917, 0.0305176, 20.9627, 91696.2
7782, 0.00328125, 0.0163037, 0.0639844, -0.00246094, 0.163908, 0, 9.83446, -0.0762939, -0.289917, 0.0152588, 20.96, 91695.8
7792, 0, 0.0120996, 0.0627539, -0.00369141, 0.17614, 0.0122319, 9.79777, 0, 0.305176, 0.0305176, 20.9464, 91696.3
7812, 0.000820312, 0.0163037, 0.0639844, -0.00666504, 0.139444, 0.00978554, 9.79288, -0.0915527, 0.228882, 0, 20.9519, 91695.5
7822, 0.000820312, 0.0150732, 0.0639844, -0.00451172, 0.119873, 0.00978554, 9.80021, -0.0305176, -0.0457764, -0.0305176, 20.9644, 91695.7
7832, 0, 0.0141504, 0.0615234, -0.00205078, 0.129658, 0.0171247, 9.77575, -0.0305176, 0.0152588, 0.0457764, 20.9623, 91696
7842, 0.000410156, 0.0150732, 0.0615234, -0.00502441, 0.0978554, 0.00978554, 9.80021, -0.0152588, 0.0762939, 0.0152588, 20.9626, 91696.2
7852, 0.000410156, 0.0125098, 0.0623437, -0.00502441, 0.0905162, 0.0269102, 9.79288, -0.0610352, 0.0305176, 0.0305176, 20.9577, 91696.2
7862, 0.000820312, 0.0125098, 0.0649072, -0.00123047, 0.0905162, 0.0146783, 9.79532, -0.0610352, -0.0610352, 0.0457764, 20.9664, 91696.3
7872, 0.000820312, 0.0145605, 0.0649072, -0.00410156, 0.107641, 0.00978554, 9.81, -0.0915527, 0.0305176, 0.0457764, 20.9572, 91696.3
7892, -0.000410156, 0.0145605, 0.0615234, -0.00205078, 0.0929626, -0.031803, 9.80511, -0.0762939, 0.152588, 0.0305176, 20.9601, 91696.5
7902, 0.000410156, 0.0125098, 0.0631641, -0.00287109, 0.129658, -0.0464813, 9.78798, -0.0457764, 0.0610352, 0.0457764, 20.9556, 91696
7912, 0.00164062, 0.0150732, 0.0635742, -0.00287109, 0.107641, -0.0244638, 9.81489, -0.0915527, -0.0610352, -0.0152588, 20.9625, 91696.5
7922, 0.00164062, 0.0150732, 0.0635742, -0.00287109, 0.136998, 0, 9.80511, -0.0457764, 0, -0.0305176, 20.9584, 91696.4
7932, 0.000410156, 0.0163037, 0.0627539, -0.00369141, 0.14189, -0.00244638, 9.7782, 0, 0.0457764, -0.0305176, 20.9652, 91696.3
7942, 0.00164062, 0.0150732, 0.0607031, -0.00584473, 0.144337, 0.0171247, 9.81245, -0.0457764, -0.0915527, -0.0610352, 20.9604, 91696.2
7952, 0.000410156, 0.0141504, 0.0611133, 0, 0.200604, 0.0244638, 9.78798, -0.0457764, 0.183105, 0, 20.9556, 91696.1
7962, 0.000820312, 0.0141504, 0.0607031, 0, 0.149229, 0.0293566, 9.81245, -0.0610352, 0.0152588, 0.0305176, 20.9656, 91695.8
7982, -0.000820312, 0.0150732, 0.060293, -0.00410156, 0.149229, 0.0342494, 9.82468, -0.0610352, 0.0762939, 0.0152588, 20.9647, 91696.2
7992, 0.00164062, 0.0150732, 0.0644971, -0.00543457, 0.163908, 0.0195711, 9.78064, -0.0152588, 0.0762939, 0.0152588, 20.9662, 91696.1
8002, 0.000410156, 0.0141504, 0.0594727, -0.00287109, 0.14189, -0.00244638, 9.82223, 0.0152588, 0.0762939, -0.0305176, 20.9699, 91695.7
8012, -0.00287109, 0.0158936, 0.0615234, -0.00287109, 0.159015, -0.0195711, 9.80021, 0.0152588, 0.137329, -0.0305176, 20.9618, 91695.7
8022, 0.00123047, 0.0158936, 0.0611133, -0.00502441, 0.139444, -0.0171247, 9.80266, -0.0762939, 0.0305176, 0.0610352, 20.9594, 91695.6
8032, 0.00123047, 0.0150732, 0.0611133, -0.00369141, 0.139444, 0, 9.81, -0.0152588, 0.0610352, 0.0915527, 20.9699, 91695.9
8042, 0.000410156, 0.0154834, 0.0611133, -0.00451172, 0.146783, -0.0195711, 9.7782, -0.0457764, -0.0457764, -0.0152588, 20.975, 91696
8062, -0.000820312, 0.0120996, 0.0635742, -0.00246094, 0.117426, 0.00489277, 9.76597, -0.0457764, -0.0762939, -0.0152588, 20.9561, 91696.2
8072, 0.000820312, 0.0120996, 0.0639844, -0.00410156, 0.100302, 0.0195711, 9.83691, -0.0762939, 0.0152588, -0.0152588, 20.9564, 91696.4
8082, 0.000820312, 0.0137402, 0.0639844, -0.00123047, 0.146783, 0.0122319, 9.78064, -0.0457764, 0.0762939, 0.0152588, 20.9633, 91695.7
8092, 0, 0.0125098, 0.0631641, -0.00543457, 0.100302, 0.0195711, 9.80021, -0.0610352, -0.12207, 0.0610352, 20.9692, 91696.6
8102, 0.00123047, 0.0179443, 0.0619336, -0.00246094, 0.122319, 0.0269102, 9.80755, -0.0305176, 0.0915527, 0.0152588, 20.9619, 91696.5
8112, 0, 0.0154834, 0.0619336, -0.00246094, 0.146783, 0.0244638, 9.78554, -0.0915527, -0.0762939, -0.0610352, 20.9544, 91696
8122, 0, 0.0154834, 0.0635742, -0.00246094, 0.107641, 0.031803, 9.8418, -0.0610352, 0.0762939, -0.0305176, 20.9616, 91696.1
8132, 0, 0.0154834, 0.0635742, -0.00369141, 0.149229, 0.0122319, 9.78309, -0.0915527, 0.0610352, 0.0610352, 20.9522, 91696.6
8152, 0.00123047, 0.0129199, 0.0623437, -0.00328125, 0.134551, 0.0122319, 9.78798, -0.0457764, 0.0610352, 0.0152588, 20.9507, 91696.4
8162, 0.00123047, 0.0141504, 0.0635742, -0.00205078, 0.134551, 0.00733915, 9.79777, -0.0610352, 0.0305176, 0.0305176, 20.9621, 91696.2
8172, 0.000820312, 0.0175342, 0.0631641, -0.00205078, 0.14189, -0.0146783, 9.79777, -0.152588, 0.0610352, 0.0152588, 20.9593, 91696.5
8182, 0.00164062, 0.0175342, 0.0619336, -0.00287109, 0.136998, -0.00489277, 9.81, -0.0915527, 0.0762939, 0.0457764, 20.963, 91696.2
8192, 0.00164062, 0.0150732, 0.0619336, -0.00164062, 0.129658, 0.00489277, 9.83446, -0.0152588, 0.0152588, -0.0152588, 20.9737, 91696.6
8202, 0, 0.0167139, 0.0619336, -0.00205078, 0.154122, 0.00733915, 9.78554, -0.0457764, 0.106812, 0.0762939, 20.9635, 91695.7
8212, -0.000410156, 0.0150732, 0.0611133, -0.00164062, 0.144337, 0.00489277, 9.80021, -0.0915527, -0.0610352, -0.0305176, 20.9624, 91695.9
8232, 0, 0.0145605, 0.0623437, -0.00287109, 0.166354, 0.0244638, 9.79288, -0.0610352, -0.0915527, 0.0305176, 20.968, 91695.9
8242, 0, 0.0133301, 0.0623437, -0.00287109, 0.154122, 0.0146783, 9.81489, -0.0152588, 0.137329, 0.0457764, 20.9659, 91696.5
8252, -0.00164062, 0.0145605, 0.0627539, -0.00205078, 0.161461, 0.0220175, 9.80511, -0.0915527, -0.0152588, 0.0305176, 20.9642, 91696
8262, 0.00164062, 0.0154834, 0.0623437, -0.00246094, 0.139444, 0.00733915, 9.81, -0.0457764, 0.0915527, 0.0305176, 20.9614, 91696.4
8272, 0.000820312, 0.0141504, 0.0627539, -0.00246094, 0.156569, 0.0220175, 9.79777, -0.0610352, -0.0152588, 0.0610352, 20.9534, 91696.1
8282, 0.000410156, 0.0141504, 0.060293, -0.00246094, 0.136998, 0.00244638, 9.80266, -0.0915527, 0.167847, 0.0457764, 20.9559, 91695.9
8292, 0.000410156, 0.0137402, 0.060293, -0.000820312, 0.159015, -0.0195711, 9.79532, -0.0915527, -0.0457764, 0.0305176, 20.9763, 91696.6
8302, 0.000820312, 0.0158936, 0.0639844, -0.00369141, 0.154122, -0.0440349, 9.80021, -0.12207, 0.0915527, 0.0610352, 20.9638, 91696
8322, 0.00246094, 0.0145605, 0.0631641, -0.00451172, 0.154122, -0.0464813, 9.81734, -0.137329, 0, 0.0152588, 20.9529, 91696.7
8332, -0.000410156, 0.0163037, 0.0611133, -0.00451172, 0.154122, -0.031803, 9.81245, -0.12207, 0.0915527, -0.0152588, 20.9465, 91696.2
8342, -0.000410156, 0.0163037, 0.0611133, -0.00205078, 0.136998, -0.0195711, 9.81, -0.0305176, -0.137329, 0, 20.9645, 91695.9
8352, -0.000410156, 0.0154834, 0.0627539, -0.00369141, 0.139444, 0.00978554, 9.79777, -0.0762939, 0.0762939, -0.0152588, 20.9614, 91696.3
8362, -0.000410156, 0.0179443, 0.0644971, -0.00287109, 0.154122, 0.00244638, 9.77575, -0.0610352, 0.0305176, -0.0305176, 20.9676, 91696.2
8372, 0.00164062, 0.0163037, 0.0627539, -0.00369141, 0.110087, 0.0269102, 9.80755, -0.137329, 0.0152588, -0.0305176, 20.9554, 91696.7
8382, 0.000410156, 0.017124, 0.0615234, -0.00369141, 0.134551, 0.0391421, 9.80266, -0.12207, 0.0457764, -0.0152588, 20.9596, 91696
8402, 0.000410156, 0.0154834, 0.0627539, -0.00502441, 0.095409, 0.0366958, 9.80511, -0.0610352, 0.0457764, 0, 20.9539, 91696
8412, -0.00164062, 0.0158936, 0.0623437, -0.00287109, 0.11498, 0.0342494, 9.79288, -0.152588, 0.0305176, 0.0762939, 20.9565, 91696.2
8422, 0.00328125, 0.0154834, 0.0627539, -0.00369141, 0.095409, 0.031803, 9.80511, -0.0610352, 0.0762939, 0, 20.9594, 91696.5
8432, 0.000410156, 0.0163037, 0.0619336, -0.00369141, 0.132105, 0.0220175, 9.78309, -0.106812, 0.0610352, 0, 20.9568, 91696.2
8442, -0.00123047, 0.0163037, 0.0615234, -0.00328125, 0.110087, 0.0220175, 9.78798, -0.137329, 0.0457764, 0, 20.9592, 91696.2
8452, -0.00123047, 0.0154834, 0.0615234, -0.00246094, 0.102748, 0.00244638, 9.78798, -0.0305176, 0.152588, 0.0457764, 20.9669, 91696.2
8462, -0.00123047, 0.0141504, 0.0627539, -0.00287109, 0.110087, 0.00244638, 9.79288, -0.0762939, 0.0610352, 0.0305176, 20.9604, 91696.3
8472, 0.000820312, 0.0133301, 0.0598828, -0.00502441, 0.112534, -0.0122319, 9.81979, -0.0610352, 0.167847, 0.0305176, 20.9684, 91696.3
8492, 0.00205078, 0.0150732, 0.0639844, -0.00164062, 0.0880698, 0, 9.88339, 0, 0.457764, 0.0305176, 20.9539, 91695.8
8502, 0.00205078, 0.0145605, 0.0639844, -0.000410156, 0.220175, 0.0171247, 9.67056, -0.137329, -0.411987, -0.0305176, 20.961, 91696
8512, -0.00164062, 0.0129199, 0.0631641, -0.00451172, 0.0293566, 0.0269102, 9.95434, 0.12207, 0.320435, 0.0152588, 20.9611, 91696.2
8522, 0.00123047, 0.0158936, 0.0627539, -0.00287109, 0.264209, 0.00733915, 9.66811, -0.0762939, -0.0457764, 0.0457764, 20.955, 91695.9
8532, 0.000820312, 0.0137402, 0.0623437, -0.00164062, 0.0660524, 0.00978554, 9.92987, -0.106812, -0.183105, -0.0305176, 20.9612, 91696.6
8542, 0.00287109, 0.0137402, 0.0631641, -0.00164062, 0.227514, 0, 9.72927, 0.0305176, 0.38147, -0.0152588, 20.959, 91695.7
8552, 0.00287109, 0.0141504, 0.0631641, -0.00287109, 0.173693, 0.00489277, 9.86382, 0, -0.411987, 0.0457764, 20.9471, 91696.6
8572, 0, 0.0154834, 0.0619336, -0.00287109, 0.217728, 0.00978554, 9.76841, 0.0152588, -0.289917, 0, 20.9597, 91696.2
8582, -0.00164062, 0.0158936, 0.0619336, -0.00246094, 0.171247, -0.0171247, 9.8418, -0.0457764, 0.198364, 0.0305176, 20.9577, 91696.5
8592, 0.000820312, 0.0125098, 0.0627539, -0.00246094, 0.217728, -0.0171247, 9.74395, -0.106812, -0.0762939, -0.0305176, 20.9737, 91696.5
8602, 0.00205078, 0.0125098, 0.0619336, -0.00287109, 0.122319, -0.0440349, 9.89562, -0.0762939, 0.12207, 0.0152588, 20.957, 91695.5
8612, 0.00205078, 0.0145605, 0.0619336, -0.00369141, 0.227514, -0.00489277, 9.69257, -0.0915527, -0.0915527, -0.0152588, 20.9673, 91695.9
8622, 0.00164062, 0.0145605, 0.0615234, -0.00164062, 0.0978554, -0.0464813, 9.92743, -0.0152588, 0.259399, -0.0305176, 20.96, 91696.3
8632, -0.000410156, 0.0150732, 0.0615234, -0.00369141, 0.222621, -0.0440349, 9.68034, -0.0762939, -0.0610352, 0.0305176, 20.9586, 91696
8642, 0, 0.0158936, 0.0615234, -0.00369141, 0.0587132, -0.0269102, 9.87361, -0.0152588, -0.0305176, -0.0762939, 20.9597, 91696.4
8662, 0.000820312, 0.0154834, 0.0615234, -0.000820312, 0.0782843, 0.00978554, 9.85648, -0.0915527, -0.167847, -0.0152588, 20.9613, 91696.3
8672, 0, 0.0137402, 0.0619336, -0.00123047, 0.110087, 0.0195711, 9.7782, -0.0762939, 0.228882, -0.0152588, 20.9602, 91695.7
8682, 0.000820312, 0.0154834, 0.0631641, -0.00164062, 0.0978554, 0.0464813, 9.77086, -0.106812, -0.0762939, -0.0152588, 20.9631, 91696.6
8692, -0.000820312, 0.0154834, 0.0631641, -0.00164062, 0.0905162, 0.0562668, 9.81489, -0.137329, 0.152588, 0, 20.9471, 91696.4
8702, 0.000410156, 0.0154834, 0.0631641, -0.00205078, 0.119873, 0.0880698, 9.76352, -0.0915527, -0.0915527, 0.0457764, 20.9578, 91696.1
8712, 0.000410156, 0.0112793, 0.0631641, -0.00246094, 0.0733915, 0.0513741, 9.82712, -0.12207, 0.137329, -0.0152588, 20.9538, 91695.9
8722, 0.000410156, 0.0141504, 0.0631641, -0.00287109, 0.117426, 0.0440349, 9.78064, -0.0152588, 0.0152588, 0.0305176, 20.9646, 91695.8
8742, 0.000410156, 0.017124, 0.0585498, -0.00328125, 0.117426, 0, 9.78064, -0.0610352, 0, 0.0305176, 20.9663, 91695.8
8752, 0.000820312, 0.017124, 0.0619336, -0.00328125, 0.107641, -0.0122319, 9.80511, -0.12207, 0.0305176, 0.0152588, 20.9566, 91695.8
8762, 0.000820312, 0.0154834, 0.0619336, -0.00451172, 0.122319, -0.0171247, 9.78798, -0.0457764, 0.0762939, 0, 20.9564, 91695.5
8772, 0.00164062, 0.0141504, 0.0615234, -0.00287109, 0.122319, -0.00489277, 9.80511, -0.0305176, 0.0762939, 0, 20.9549, 91695.9
8782, -0.00123047, 0.0154834, 0.0627539, -0.00502441, 0.127212, -0.00733915, 9.79532, -0.0305176, -0.0152588, 0.0152588, 20.9532, 91696.2
8792, 0.000820312, 0.0129199, 0.0615234, -0.00123047, 0.156569, 0.0122319, 9.80511, -0.106812, 0, -0.0152588, 20.965, 91696.3
8802, 0, 0.0137402, 0.0611133, -0.00123047, 0.154122, 0.031803, 9.81245, 0, 0.0762939, 0.0610352, 20.9655, 91696.6
8812, 0.000410156, 0.0137402, 0.060293, -0.00328125, 0.161461, 0.0342494, 9.81979, -0.0762939, 0.0152588, 0, 20.9636, 91697
8832, -0.000820312, 0.0145605, 0.0639844, -0.00543457, 0.190818, 0.031803, 9.79288, -0.0457764, -0.0305176, 0.0152588, 20.948, 91696.2
8842, 0.00164062, 0.0129199, 0.0615234, -0.00369141, 0.166354, 0.0122319, 9.82468, -0.0915527, 0.137329, 0.0457764, 20.9617, 91695.9
8852, -0.000410156, 0.0150732, 0.0644971, -0.00369141, 0.173693, -0.00489277, 9.81979, -0.0762939, 0.0457764, 0.0305176, 20.9585, 91696
8862, 0, 0.0150732, 0.0607031, -0.00205078, 0.163908, -0.0122319, 9.80755, -0.0305176, 0.0762939, 0.0152588, 20.9675, 91695.9
8872, 0, 0.0137402, 0.0607031, -0.00369141, 0.156569, -0.0122319, 9.80021, 0, 0, 0.0152588, 20.9653, 91695.7
8882, 0.00164062, 0.0145605, 0.0619336, -0.00369141, 0.134551, 0.00244638, 9.79532, -0.0915527, 0.12207, 0, 20.9622, 91696
8892, 0, 0.0145605, 0.0631641, -0.00328125, 0.139444, -0.0269102, 9.81734, -0.0915527, 0.0915527, 0.0305176, 20.9492, 91695.9
8902, 0.00123047, 0.0129199, 0.0627539, -0.00328125, 0.136998, -0.0122319, 9.80266, -0.0457764, 0.0457764, 0, 20.9737, 91696.4
8922, 0.00287109, 0.0150732, 0.0607031, -0.00328125, 0.11498, 0.0171247, 9.79532, -0.0762939, 0.0305176, 0, 20.9453, 91695.9
8932, 0.00164062, 0.0154834, 0.0598828, -0.00205078, 0.102748, 0.0195711, 9.81734, -0.0915527, -0.0152588, -0.0305176, 20.9562, 91696.2
8942, 0.00123047, 0.0154834, 0.0627539, -0.00246094, 0.124766, -0.00489277, 9.80021, -0.0915527, -0.0152588, -0.0305176, 20.9588, 91696.8
8952, -0.000410156, 0.0158936, 0.0607031, -0.000820312, 0.112534, 0.00978554, 9.79043, -0.0915527, 0.0152588, -0.0305176, 20.9578, 91696.2
8962, 0.000410156, 0.0158936, 0.0607031, -0.000820312, 0.105195, 0.0171247, 9.78554, -0.0610352, 0.0915527, 0.0610352, 20.9502, 91695.4
8972, -0.00123047, 0.0141504, 0.060293, -0.000410156, 0.144337, 0.0122319, 9.79532, -0.0152588, -0.0152588, -0.0610352, 20.958, 91696.2
9022, 0.00123047, 0.0141504, 0.0627539, -0.00369141, 0.146783, 0.00244638, 9.81245, -0.0305176, 0.0915527, -0.0152588, 20.9578, 91696
9032, 0.00123047, 0.0141504, 0.0627539, -0.00287109, 0.146783, -0.00733915, 9.79532, -0.0610352, 0.0610352, 0.0152588, 20.9599, 91696
9042, 0.00123047, 0.0141504, 0.0627539, -0.00328125, 0.14189, 0, 9.80021, -0.0915527, 0.0610352, -0.0152588, 20.9538, 91696.2
9052, 0.00164062, 0.0150732, 0.0619336, -0.00369141, 0.14189, 0.00489277, 9.79777, -0.0915527, 0.0457764, -0.0152588, 20.9653, 91696.3
9062, -0.00123047, 0.0137402, 0.0649072, -0.00369141, 0.159015, 0.00733915, 9.79777, -0.0152588, 0.0915527, -0.0305176, 20.9635, 91696.2
9072, -0.000410156, 0.0137402, 0.0611133, -0.00205078, 0.14189, 0.00244638, 9.81245, -0.0762939, 0.0152588, 0.0152588, 20.9691, 91696.3
9082, -0.000410156, 0.0158936, 0.0611133, -0.00246094, 0.163908, 0.0293566, 9.80266, -0.0457764, 0.0762939, 0, 20.9599, 91696.2
9102, 0.000410156, 0.0163037, 0.0619336, -0.00287109, 0.146783, 0.0195711, 9.79532, -0.0762939, 0.0457764, -0.0152588, 20.9579, 91696
9112, 0.00164062, 0.0145605, 0.0619336, -0.00287109, 0.161461, 0.0122319, 9.79777, -0.137329, 0.0305176, -0.0152588, 20.9575, 91696
9122, -0.00123047, 0.0145605, 0.0615234, -0.00246094, 0.144337, 0.0171247, 9.80511, -0.0305176, -0.0915527, 0.0610352, 20.9651, 91696
9132, -0.00123047, 0.0158936, 0.0615234, -0.00246094, 0.134551, 0.00244638, 9.81, -0.0152588, 0.0457764, 0, 20.9716, 91696.1
9142, 0.00287109, 0.0150732, 0.0623437, -0.00410156, 0.154122, 0.00244638, 9.80511, -0.0457764, 0.0457764, 0.0305176, 20.9628, 91696.2
9152, 0.00287109, 0.0137402, 0.0611133, -0.000820312, 0.144337, 0, 9.80755, -0.0610352, -0.0762939, 0.0457764, 20.9578, 91695.8
9162, 0.000410156, 0.0125098, 0.0611133, -0.00205078, 0.149229, -0.00978554, 9.80266, -0.0762939, 0.0457764, -0.0152588, 20.9657, 91696.2
9172, 0.00123047, 0.0125098, 0.0623437, -0.00205078, 0.144337, -0.00978554, 9.80021, -0.106812, 0.0762939, -0.0457764, 20.9519, 91696.5
9192, 0.00164062, 0.0150732, 0.0623437, -0.00287109, 0.144337, 0.0146783, 9.80266, -0.0610352, 0.0457764, 0.0457764, 20.9541, 91696
9202, 0.000410156, 0.0154834, 0.0627539, -0.00164062, 0.134551, 0.00244638, 9.80755, -0.137329, -0.0457764, -0.0305176, 20.9561, 91695.9
9212, 0.00123047, 0.0154834, 0.0627539, -0.00287109, 0.127212, 0.0244638, 9.81489, 0.0152588, 0.0915527, 0.0152588, 20.9688, 91696.3
9222, -0.000410156, 0.0154834, 0.0615234, -0.00287109, 0.134551, 0.0171247, 9.81245, -0.0762939, 0.0457764, 0, 20.9583, 91695.7
9232, 0, 0.0158936, 0.0627539, -0.00205078, 0.11498, 0.0220175, 9.79777, -0.0305176, 0, 0.0610352, 20.9625, 91696
9242, 0, 0.0125098, 0.0627539, -0.00543457, 0.102748, 0.0244638, 9.79288, -0.0305176, -0.0610352, 0, 20.9548, 91696.6
9252, 0.00369141, 0.0120996, 0.0623437, -0.00287109, 0.183479, -0.0587132, 9.73172, -0.183105, 0.442505, 0, 20.9587, 91696.3
9272, 0.000410156, 0.0163037, 0.0611133, -0.00287109, 0.161461, -0.0366958, 9.73906, -0.0610352, 1.34277, 0.0152588, 20.9701, 91696.2
9282, 0.00287109, 0.0163037, 0.0598828, -0.00369141, 0.110087, 0.031803, 9.83446, -0.152588, -1.25122, 0.0610352, 20.9696, 91696.2
9292, 0.00287109, 0.0116895, 0.0598828, -0.00502441, 0.0880698, 0.0489277, 9.82223, -0.106812, 1.15967, 0.0305176, 20.9436, 91696.7
9302, -0.000410156, 0.0137402, 0.0627539, -0.00410156, 0.195711, 0.0269102, 9.65099, -0.106812, -0.808716, -0.0915527, 20.9552, 91695.9
9312, 0.00287109, 0.0163037, 0.0619336, -0.00410156, 0.0269102, -0.00733915, 9.9788, -0.0305176, 0.671387, 0.0457764, 20.9588, 91696.2
9322, -0.000410156, 0.0163037, 0.0619336, -0.00410156, 0.22996, 0.00978554, 9.68279, -0.137329, -0.457764, 0.0457764, 20.96, 91696.5
9332, 0.00123047, 0.0163037, 0.0644971, -0.00287109, 0.0807307, 0, 9.88095, 0.0305176, 0.305176, 0.0610352, 20.948, 91696.7
9342, 0.00123047, 0.0141504, 0.0644971, -0.00410156, 0.207943, 0.00733915, 9.73906, -0.12207, 0.137329, 0.0457764, 20.959, 91696.4
9362, 0, 0.0167139, 0.0615234, -0.00328125, 0.159015, -0.0269102, 9.78064, -0.167847, 0.366211, -0.0305176, 20.9527, 91695.8
9372, 0.00123047, 0.0150732, 0.0635742, -0.00451172, 0.163908, -0.0171247, 9.79777, -0.0610352, -0.259399, -0.0152588, 20.9566, 91696
9382, -0.00164062, 0.0150732, 0.0635742, -0.00451172, 0.144337, 0, 9.83936, -0.152588, 0.228882, 0.0457764, 20.9635, 91696.3
9392, 0.000820312, 0.0163037, 0.0635742, -0.00246094, 0.185925, -0.0122319, 9.76352, -0.0457764, -0.0457764, -0.0305176, 20.9499, 91696.1
9402, 0.000820312, 0.0125098, 0.0615234, -0.00164062, 0.156569, 0.0171247, 9.80755, -0.0915527, 0.0610352, 0.0152588, 20.9503, 91696.4
9412, 0.00164062, 0.0158936, 0.0635742, -0.00287109, 0.173693, 0.0146783, 9.80021, -0.0915527, 0.0610352, 0, 20.9591, 91696.4
9422, -0.00164062, 0.0141504, 0.0615234, -0.00287109, 0.183479, 0.0342494, 9.79043, -0.0610352, -0.0305176, 0.0152588, 20.9494, 91696.5
9442, 0.000820312, 0.0116895, 0.0623437, -0.00246094, 0.159015, 0.0122319, 9.79777, -0.0610352, -0.0915527, 0.0457764, 20.9586, 91696.1
9452, 0.000820312, 0.0150732, 0.0623437, -0.00164062, 0.136998, -0.00978554, 9.80511, -0.0610352, 0.198364, 0.0762939, 20.9599, 91696.3
9462, 0, 0.0141504, 0.0615234, -0.00369141, 0.185925, 0.00244638, 9.70236, -0.167847, 0.0762939, -0.0152588, 20.9614, 91696.5
9472, 0.000820312, 0.0158936, 0.0619336, -0.00410156, 0.0220175, 0.00244638, 9.98125, 0.0305176, 0.12207, 0.0152588, 20.9684, 91696.6
9482, 0.00205078, 0.0141504, 0.0635742, -0.00410156, 0.207943, -0.0562668, 9.64609, -0.12207, 0.106812, 0.0152588, 20.9584, 91695.4
9492, -0.000820312, 0.0141504, 0.0615234, -0.00543457, 0.0195711, 0.00244638, 9.93477, -0.0610352, -0.106812, -0.0610352, 20.9622, 91696.3
9502, -0.000820312, 0.0154834, 0.0615234, -0.00246094, 0.156569, -0.00489277, 9.72438, -0.0305176, 0.320435, -0.0152588, 20.9536, 91696.3
9512, 0.00205078, 0.0137402, 0.0627539, -0.00246094, 0.0978554, 0.0171247, 9.81979, -0.0457764, -0.473022, 0, 20.9588, 91696.4
9532, 0.000410156, 0.0141504, 0.0611133, -0.000820312, 0.136998, 0.0538205, 9.79532, 0, -0.183105, -0.0305176, 20.9508, 91696.2
9542, 0, 0.0141504, 0.0615234, -0.00369141, 0.11498, 0.0440349, 9.79777, -0.0457764, 0.106812, 0.0457764, 20.9546, 91696.4
9552, 0, 0.0141504, 0.0615234, -0.00369141, 0.156569, 0.0440349, 9.74395, -0.12207, -0.0610352, 0.0457764, 20.9594, 91696.2
9562, 0.00287109, 0.0150732, 0.0611133, -0.00502441, 0.0660524, 0.031803, 9.92009, -0.0152588, -0.137329, 0.0762939, 20.9505, 91696.1
9572, -0.000410156, 0.0141504, 0.0631641, -0.00410156, 0.244638, -0.031803, 9.62163, -0.137329, 0.38147, 0.0457764, 20.9582, 91696.6
9582, 0.000410156, 0.0158936, 0.0631641, -0.000410156, 0.0342494, 0.0220175, 9.96657, -0.0152588, -0.366211, 0, 20.9637, 91696.3
9592, 0.000820312, 0.0158936, 0.060293, -0.000410156, 0.217728, -0.0464813, 9.70725, -0.0457764, 0.640869, -0.0305176, 20.9643, 91696.3
9612, -0.00123047, 0.0125098, 0.0607031, -0.00246094, 0.134551, -0.0269102, 9.82223, -0.0457764, 0.595093, 0.0152588, 20.9566, 91696.2
9622, -0.000820312, 0.017124, 0.0631641, -0.000820312, 0.195711, -0.0244638, 9.78064, -0.0762939, -0.259399, 0, 20.9566, 91695.5
9632, 0.000410156, 0.0141504, 0.0631641, -0.00328125, 0.132105, 0.0146783, 9.84425, -0.0915527, 0.167847, -0.0457764, 20.9478, 91696
9642, 0.000820312, 0.0141504, 0.0627539, -0.00328125, 0.183479, 0.00978554, 9.75863, -0.12207, -0.12207, 0.0457764, 20.9623, 91696.5
9652, 0.00164062, 0.0150732, 0.0627539, -0.00246094, 0.161461, 0.0122319, 9.81979, -0.0762939, -0.0457764, 0.0457764, 20.9612, 91696
9662, 0.00164062, 0.0150732, 0.0607031, -0.00502441, 0.181032, 0.0171247, 9.79532, -0.0305176, 0.0762939, -0.0305176, 20.9528, 91696.6
9672, 0.00287109, 0.0154834, 0.0615234, -0.00328125, 0.171247, 0.0146783, 9.80511, -0.0610352, -0.0762939, -0.0305176, 20.9538, 91696.1
9682, -0.00205078, 0.0137402, 0.0615234, -0.00164062, 0.178586, 0.00978554, 9.79777, -0.0915527, 0.106812, 0.0457764, 20.9518, 91696.5
9702, 0.00246094, 0.0154834, 0.0619336, -0.00246094, 0.146783, 0.0146783, 9.81245, -0.0762939, 0.198364, 0.0610352, 20.951, 91696.4
9712, 0.00246094, 0.0154834, 0.0619336, -0.00287109, 0.149229, 0.00489277, 9.78798, -0.12207, 0.152588, -0.0152588, 20.965, 91696.7
9722, 0.00205078, 0.0125098, 0.0615234, -0.00502441, 0.117426, 0.0244638, 9.75618, -0.274658, 0.137329, 0, 20.9564, 91696.5
9732, 0, 0.0125098, 0.0623437, -0.000820312, 0.11498, 0.0171247, 9.74395, -0.335693, 0.213623, 0, 20.9615, 91696.5
9742, 0.00123047, 0.0158936, 0.0615234, -0.000820312, 0.0831771, -0.00244638, 9.83202, -0.305176, 0.106812, -0.0152588, 20.9634, 91696.4
9752, 0.000410156, 0.0158936, 0.0611133, -0.000410156, 0.0782843, -0.0538205, 9.85159, -0.289917, -0.0305176, 0.0457764, 20.9623, 91696.3
9762, 0.000410156, 0.0175342, 0.0611133, -0.00287109, 0.0733915, -0.0440349, 9.85159, 0.106812, 0.0305176, 0.0457764, 20.968, 91696.2
9782, 0.000820312, 0.0158936, 0.0635742, -0.00123047, 0.0856234, 0, 9.73172, 0.0457764, 0.0915527, -0.0152588, 20.9596, 91695.8
9792, 0.00205078, 0.0154834, 0.0615234, -0.00123047, 0.0905162, 0.00978554, 9.70481, -0.0915527, 0.0457764, -0.0762939, 20.9663, 91696.3
9802, 0.000820312, 0.0154834, 0.0631641, -0.00369141, 0.0733915, 0.0171247, 9.79532, -0.213623, 0.0305176, -0.12207, 20.959, 91696.3
9812, 0.00123047, 0.0141504, 0.0631641, -0.00287109, 0.110087, 0.0464813, 9.82712, -0.183105, 0.0152588, 0.0152588, 20.9473, 91696.5
9822, 0.00123047, 0.0133301, 0.0631641, -0.00287109, 0.134551, 0.0807307, 9.81734, -0.152588, 0, 0.0305176, 20.9657, 91696.3
9832, 0.00123047, 0.0154834, 0.0627539, -0.00164062, 0.154122, 0.0807307, 9.78798, -0.167847, -0.0305176, 0.0762939, 20.9528, 91696.5
9842, 0.00205078, 0.0137402, 0.0585498, -0.00369141, 0.159015, 0.0562668, 9.78798, -0.0610352, -0.0305176, 0.0305176, 20.9623, 91696.2
9852, 0.00205078, 0.0137402, 0.0635742, -0.00369141, 0.178586, 0.0244638, 9.79043, -0.0457764, -0.0152588, -0.0152588, 20.9612, 91696.2
9872, 0.00123047, 0.0150732, 0.0623437, -0.00246094, 0.159015, -0.0293566, 9.82223, -0.106812, 0, 0, 20.9497, 91696.4
9882, 0.00205078, 0.0163037, 0.0627539, -0.00328125, 0.181032, -0.063606, 9.82712, -0.137329, 0.0305176, 0.0152588, 20.9553, 91695.8
9892, 0.00164062, 0.0145605, 0.0635742, -0.00287109, 0.173693, -0.0391421, 9.80021, -0.0610352, 0.0610352, -0.0152588, 20.9584, 91696.1
9902, 0, 0.0145605, 0.0627539, -0.00287109, 0.183479, -0.0293566, 9.80266, -0.0305176, 0.0457764, -0.0457764, 20.9521, 91696
9912, 0.000820312, 0.0145605, 0.0627539, -0.00502441, 0.156569, -0.0122319, 9.82957, -0.137329, 0.0610352, -0.0610352, 20.9567, 91696.1
9922, 0.000820312, 0.0154834, 0.0627539, -0.00164062, 0.168801, 0.00489277, 9.79532, -0.0762939, -0.0457764, 0, 20.9562, 91696.6
9932, 0, 0.0150732, 0.0594727, -0.00287109, 0.171247, 0.0171247, 9.79532, -0.0610352, 0.0915527, -0.0610352, 20.9566, 91696.3
9952, 0.00369141, 0.0141504, 0.0619336, -0.00246094, 0.168801, 0.0562668, 9.81245, 0.0457764, 0.0610352, 0.0305176, 20.9562, 91695.4
9962, 0, 0.0141504, 0.0598828, -0.00328125, 0.168801, 0.0538205, 9.81489, -0.0610352, 0.0152588, 0.0152588, 20.9647, 91696.5
9972, 0, 0.0150732, 0.0598828, -0.00328125, 0.144337, 0.0122319, 9.79777, -0.0915527, 0.106812, 0.0457764, 20.9624, 91696.5
9982, 0, 0.0133301, 0.0631641, -0.00369141, 0.139444, -0.00244638, 9.78064, -0.0762939, -0.0457764, 0.0610352, 20.9541, 91696.5
9992, 0.00123047, 0.0150732, 0.0623437, -0.00410156, 0.110087, -0.0195711, 9.81734, -0.0915527, 0.0457764, 0, 20.9561, 91696.1
10002, 0.00164062, 0.0150732, 0.0619336, -0.00410156, 0.107641, -0.0269102, 9.79288, -0.0915527, -0.0762939, 0.0610352, 20.9561, 91696.5
10012, 0.00123047, 0.0150732, 0.0627539, -0.00410156, 0.107641, -0.0146783, 9.82712, -0.0457764, 0.0610352, -0.0152588, 20.9656, 91696.2
10022, 0.00164062, 0.0145605, 0.0627539, -0.00410156, 0.0905162, -0.0293566, 9.79043, 0, 0.0305176, 0.0305176, 20.9592, 91696.6
10042, 0.000410156, 0.0137402, 0.0598828, -0.00328125, 0.0831771, 0.00733915, 9.78554, -0.198364, 0.0305176, 0.0152588, 20.9598, 91695.8
10052, 0, 0.0129199, 0.0615234, -0.00328125, 0.095409, 0.00733915, 9.81245, -0.12207, 0.0152588, -0.0457764, 20.9597, 91695.6
10062, 0.000410156, 0.0129199, 0.0619336, -0.00328125, 0.14189, 0.0195711, 9.79043, -0.0610352, -0.0762939, -0.0457764, 20.9471, 91696
10072, -0.000410156, 0.0158936, 0.0619336, -0.00328125, 0.129658, 0.031803, 9.80021, 0.0152588, 0.198364, 0.12207, 20.9588, 91696.2
10082, -0.000410156, 0.0154834, 0.0623437, -0.00205078, 0.122319, 0.0293566, 9.80266, -0.0610352, -0.0610352, 0.0915527, 20.9514, 91696.8
10092, -0.000820312, 0.0154834, 0.0623437, -0.00246094, 0.166354, 0.031803, 9.7733, -0.0610352, 0.0610352, 0, 20.9492, 91696.4
10102, -0.000410156, 0.0150732, 0.0639844, -0.00369141, 0.124766, 0.0220175, 9.82957, -0.106812, 0.0610352, 0.106812, 20.9486, 91696.2
10122, 0.00123047, 0.0158936, 0.0615234, -0.00328125, 0.144337, 0.0122319, 9.94455, 0.0305176, 0.274658, 0.0305176, 20.9614, 91696.2
10132, 0.00123047, 0.0125098, 0.0615234, -0.00205078, 0.100302, -0.0391421, 9.94455, -0.183105, -0.0305176, -0.0305176, 20.959, 91695.8
10142, 0.000410156, 0.0125098, 0.0623437, -0.00369141, 0.288673, -0.0293566, 10.0277, 0.0457764, -0.106812, 0.0457764, 20.9559, 91696.1
10152, 0.000820312, 0.0145605, 0.0615234, -0.00543457, 0.0122319, -0.00978554, 9.62163, -0.137329, 0.50354, 0.0152588, 20.9493, 91696.3
10162, -0.000820312, 0.0158936, 0.0607031, -0.00543457, 0.266656, -0.0366958, 9.92498, -0.0610352, -0.656128, -0.0152588, 20.9567, 91696
10172, 0.00287109, 0.0158936, 0.0627539, -0.00287109, 0.0709451, -0.0269102, 9.78064, -0.0762939, 0.793457, -0.0305176, 20.9664, 91696.7
10182, 0.000820312, 0.0129199, 0.0627539, -0.00164062, 0.193264, -0.0146783, 9.78554, -0.0762939, -0.640869, -0.0305176, 20.9583, 91696.2
10192, 0.000820312, 0.0158936, 0.0631641, -0.00287109, 0.193264, -0.00489277, 9.88584, -0.106812, 0.473022, 0.0152588, 20.9529, 91696
10212, 0.00164062, 0.0150732, 0.0607031, -0.00287109, 0.222621, 0.0220175, 9.9103, -0.106812, -0.0305176, -0.0305176, 20.9607, 91696
10222, 0, 0.0150732, 0.0615234, -0.000820312, 0.0611596, 0.0415885, 9.71704, -0.0305176, 0.320435, 0.0305176, 20.9579, 91695.6
10232, 0.000410156, 0.0141504, 0.0615234, -0.00502441, 0.183479, 0.031803, 9.86871, -0.0762939, -0.259399, 0.0457764, 20.9585, 91695.9
10242, 0.000410156, 0.0137402, 0.0639844, -0.00287109, 0.0929626, 0.0342494, 9.78064, 0, 0.183105, 0.0305176, 20.9471, 91696.1
10252, 0.00164062, 0.0145605, 0.0631641, -0.00164062, 0.127212, 0.0244638, 9.78798, -0.0305176, -0.137329, 0.0915527, 20.9483, 91696.3
10262, -0.000410156, 0.0145605, 0.0619336, -0.00164062, 0.107641, 0.00733915, 9.79532, -0.0305176, -0.0762939, 0.0457764, 20.955, 91696.3
10272, 0, 0.0145605, 0.0623437, -0.00164062, 0.122319, -0.00489277, 9.78798, -0.0762939, 0.198364, 0, 20.9619, 91696.3
10292, 0.00164062, 0.0137402, 0.0635742, -0.00246094, 0.139444, -0.031803, 9.80266, -0.106812, 0.0915527, 0.0152588, 20.957, 91696.2
10302, 0, 0.0145605, 0.0615234, -0.00502441, 0.132105, -0.0342494, 9.80511, 0.0305176, -0.152588, 0, 20.9612, 91695.9
10312, 0.000410156, 0.0141504, 0.0623437, -0.00410156, 0.163908, -0.00489277, 9.82712, -0.0457764, 0.0915527, -0.0457764, 20.9645, 91695.4
10322, 0.00123047, 0.0141504, 0.0631641, -0.00410156, 0.156569, -0.00733915, 9.80755, -0.0457764, -0.106812, 0, 20.9667, 91696.1
10332, 0.000820312, 0.0150732, 0.0619336, -0.00328125, 0.173693, 0.0122319, 9.79777, -0.0457764, 0.0457764, 0.0305176, 20.9502, 91696.5
10342, 0.000820312, 0.0145605, 0.0619336, -0.00287109, 0.159015, 0.0195711, 9.79043, -0.0305176, -0.0762939, 0, 20.9556, 91696.6
10352, 0.00164062, 0.0145605, 0.0619336, -0.00246094, 0.171247, 0.0220175, 9.79043, -0.0762939, 0, 0.0457764, 20.9571, 91696.7
10362, 0.00164062, 0.0141504, 0.0627539, -0.00410156, 0.178586, -0.00244638, 9.80021, -0.0915527, 0.0610352, 0.0457764, 20.9576, 91696.2
10382, 0, 0.0150732, 0.060293, -0.00205078, 0.185925, -0.0342494, 9.83936, -0.0610352, 0.0152588, 0.0457764, 20.9608, 91695.7
10392, 0.000820312, 0.0158936, 0.060293, -0.00369141, 0.151676, -0.0293566, 9.79043, -0.0305176, 0, 0.0305176, 20.9568, 91696.4
10402, 0.000820312, 0.0163037, 0.0631641, -0.00246094, 0.185925, -0.0366958, 9.81489, -0.0152588, 0.0305176, 0.0152588, 20.9573, 91696.4
10412, 0.000410156, 0.0129199, 0.0623437, -0.00502441, 0.139444, -0.0244638, 9.78798, -0.0457764, 0.0305176, -0.0152588, 20.9393, 91696
10422, 0.000820312, 0.0129199, 0.0631641, -0.00502441, 0.168801, -0.0122319, 9.82468, -0.0152588, 0.0152588, -0.0305176, 20.9657, 91696.1
10432, 0.000820312, 0.0129199, 0.0619336, -0.00246094, 0.14189, 0, 9.81489, 0.0610352, -0.0610352, 0, 20.958, 91696
10442, -0.000820312, 0.0133301, 0.0619336, -0.00287109, 0.144337, 0.0171247, 9.78064, 0.0457764, 0.0152588, 0, 20.9546, 91696.1
10462, -0.000410156, 0.0141504, 0.0627539, -0.00287109, 0.110087, 0.0171247, 9.78554, -0.0457764, 0.0305176, 0.0762939, 20.9702, 91696.3
10472, 0.00123047, 0.0145605, 0.0615234, -0.00666504, 0.0905162, 0.0171247, 9.78309, -0.0457764, -0.0152588, -0.0305176, 20.9554, 91696.1
10482, 0.00123047, 0.0145605, 0.0615234, -0.00666504, 0.0807307, 0.0146783, 9.79777, 0.0152588, -0.0305176, 0.0152588, 20.9487, 91695.5
10492, 0.00205078, 0.0150732, 0.0615234, -0.00502441, 0.0709451, 0.00978554, 9.78309, -0.0305176, 0.0152588, -0.0152588, 20.9612, 91695.7
10502, 0.00205078, 0.0125098, 0.0615234, -0.00246094, 0.0880698, 0.00244638, 9.78064, -0.0305176, -0.0610352, 0.0457764, 20.9579, 91696.4
10512, 0.00246094, 0.0112793, 0.0635742, -0.000410156, 0.100302, 0.0122319, 9.79043, -0.0152588, 0.0610352, -0.0610352, 20.9522, 91696.1
10522, 0.000820312, 0.017124, 0.060293, -0.00287109, 0.0929626, -0.00244638, 9.79777, -0.0457764, -0.0305176, 0, 20.9533, 91696.3
10532, 0.00123047, 0.017124, 0.0627539, -0.00287109, 0.0856234, -0.00733915, 9.77575, -0.12207, -0.0152588, 0.0152588, 20.9648, 91696.5
10552, 0.000410156, 0.0141504, 0.060293, -0.00123047, 0.127212, 0.00733915, 9.78798, -0.0457764, 0.0457764, -0.0457764, 20.9713, 91696.5
10562, 0.00123047, 0.0141504, 0.0627539, -0.00246094, 0.132105, 0.00733915, 9.80021, -0.0915527, -0.0305176, -0.0152588, 20.9575, 91696.2
10572, 0.000820312, 0.0133301, 0.0631641, -0.00246094, 0.136998, 0.00489277, 9.81734, -0.106812, -0.0610352, -0.0610352, 20.9598, 91696.4
10582, -0.000410156, 0.0167139, 0.0598828, -0.00246094, 0.134551, 0.0269102, 9.83446, 0.0152588, -0.0610352, 0.0305176, 20.9673, 91695.9
10592, 0.000820312, 0.0167139, 0.0619336, -0.00246094, 0.207943, 0.0660524, 9.72193, 0.0152588, 0.0152588, 0.0152588, 20.9605, 91696.4
10602, -0.00123047, 0.0120996, 0.0619336, -0.00123047, 0.146783, 0.0880698, 9.89562, 0.0152588, 0.152588, 0.106812, 20.9558, 91696.2
10612, -0.00123047, 0.0125098, 0.0615234, -0.00205078, 0.188372, 0.031803, 9.77086, -0.0915527, 0.0152588, 0.0915527, 20.9575, 91696.7
10622, 0.00123047, 0.0129199, 0.0631641, -0.00543457, 0.136998, -0.0171247, 9.77086, -0.198364, 0.0305176, 0.106812, 20.9608, 91696.1
10642, 0.00164062, 0.0133301, 0.0611133, -0.00123047, 0.159015, -0.031803, 9.82957, 0, 0.0152588, -0.0152588, 20.9597, 91696.6
10652, -0.000410156, 0.0125098, 0.0611133, -0.00328125, 0.154122, -0.0244638, 9.8418, -0.0305176, 0.0762939, -0.0610352, 20.9525, 91696.1
10662, -0.000410156, 0.0163037, 0.0635742, -0.00328125, 0.183479, -0.0244638, 9.78798, -0.0762939, 0, -0.0152588, 20.9645, 91696.3
10672, 0.000820312, 0.0141504, 0.0623437, -0.00369141, 0.156569, -0.0220175, 9.79777, -0.0610352, 0.198364, 0, 20.9559, 91696.1
10682, 0.00123047, 0.0120996, 0.0611133, -0.000820312, 0.149229, 0.0146783, 9.80021, -0.0305176, -0.0610352, -0.0457764, 20.9632, 91696.4
10692, -0.000410156, 0.0120996, 0.0635742, -0.000820312, 0.14189, 0.0244638, 9.83446, -0.0610352, 0.0152588, -0.0305176, 20.9642, 91695.8
10702, -0.000820312, 0.0133301, 0.0635742, -0.00205078, 0.185925, 0.0342494, 9.80511, -0.137329, 0.0457764, 0.0610352, 20.9574, 91696.1
10722, 0.00123047, 0.0154834, 0.0623437, -0.00543457, 0.134551, 0.0220175, 9.81489, 0.0152588, 0.0915527, 0.0762939, 20.9617, 91696
10732, 0, 0.0154834, 0.0627539, -0.00205078, 0.134551, 0.0171247, 9.77575, -0.0762939, -0.0610352, 0.0305176, 20.9613, 91696.3
10742, 0.00164062, 0.0154834, 0.060293, -0.00205078, 0.129658, -0.00244638, 9.79777, -0.152588, 0.0305176, -0.0152588, 20.9588, 91696.2
10752, 0.000410156, 0.0154834, 0.0623437, -0.00369141, 0.134551, -0.0171247, 9.81734, -0.0915527, 0.0610352, 0.0305176, 20.9512, 91696.2
10762, 0.000410156, 0.0141504, 0.0623437, -0.00369141, 0.127212, -0.0244638, 9.80755, -0.0915527, 0.12207, -0.0305176, 20.963, 91696
10772, 0.000410156, 0.0125098, 0.0627539, -0.00287109, 0.129658, 0, 9.7782, -0.0152588, 0.0152588, 0.0305176, 20.9595, 91695.9
10782, 0.000820312, 0.0145605, 0.0649072, -0.000820312, 0.129658, -0.00733915, 9.77575, -0.137329, 0.137329, 0.0610352, 20.9588, 91696.4
10792, 0.00123047, 0.0137402, 0.0598828, -0.000820312, 0.122319, -0.00978554, 9.82223, -0.183105, 0.0762939, 0.0457764, 20.9585, 91696
10812, -0.00164062, 0.0133301, 0.0631641, -0.00205078, 0.136998, 0.00733915, 9.79777, -0.0457764, 0.0152588, 0, 20.9612, 91696.2
10822, -0.00164062, 0.017124, 0.0623437, -0.00451172, 0.134551, -0.00489277, 9.80021, -0.0610352, 0.12207, 0, 20.958, 91696.3
10832, -0.00123047, 0.0133301, 0.0615234, -0.00369141, 0.124766, -0.0171247, 9.80266, -0.12207, 0.0457764, -0.0610352, 20.9674, 91695.8
10842, 0.00123047, 0.0125098, 0.0619336, -0.00369141, 0.139444, -0.0195711, 9.79777, -0.12207, 0.0457764, 0.0457764, 20.9651, 91696.2
10852, -0.000410156, 0.0125098, 0.0631641, -0.00410156, 0.139444, -0.00489277, 9.81, -0.0762939, 0.106812, 0.0152588, 20.9599, 91696.5
10862, -0.000820312, 0.0141504, 0.0631641, -0.00287109, 0.139444, 0.00733915, 9.7733, -0.106812, 0.0762939, -0.0305176, 20.9637, 91696
10872, -0.000820312, 0.0150732, 0.0619336, -0.00369141, 0.0929626, 0.0122319, 9.80266, -0.137329, 0.0915527, -0.0152588, 20.967, 91696.3
10892, 0, 0.0129199, 0.0635742, -0.00164062, 0.124766, 0.0293566, 9.82468, -0.0152588, 0.0762939, -0.0152588, 20.955, 91696.1
10902, 0.00164062, 0.0129199, 0.0619336, -0.00164062, 0.122319, 0.0293566, 9.82223, -0.0610352, 0.0610352, -0.0152588, 20.9638, 91696.6
10912, 0.000410156, 0.0141504, 0.0619336, 0, 0.11498, 0.0195711, 9.78554, -0.0610352, -0.0457764, 0.0762939, 20.9582, 91696.1
10922, 0.000410156, 0.0150732, 0.0619336, -0.00543457, 0.146783, -0.0244638, 9.78064, -0.106812, 0.0610352, 0.106812, 20.9594, 91696.1
10932, -0.00123047, 0.0133301, 0.0623437, -0.00246094, 0.156569, -0.0244638, 9.78554, -0.0762939, 0.0610352, 0.0610352, 20.9682, 91696
10942, 0.00123047, 0.0150732, 0.0639844, -0.00451172, 0.129658, -0.0220175, 9.83936, -0.0762939, 0.152588, 0.0152588, 20.9706, 91696.3
10952, 0.00123047, 0.0150732, 0.0631641, -0.00451172, 0.173693, -0.0146783, 9.80021, -0.0915527, 0.0762939, 0.0457764, 20.9615, 91696.8
10962, 0.000820312, 0.0150732, 0.0594727, -0.00287109, 0.146783, -0.0146783, 9.81245, -0.213623, 0.0915527, 0.0152588, 20.9765, 91695.7
10982, 0.000820312, 0.0133301, 0.0611133, -0.000820312, 0.178586, -0.00733915, 9.81734, 0.0457764, 0.0457764, 0, 20.959, 91695.9
10992, -0.00328125, 0.0133301, 0.0623437, -0.00123047, 0.173693, 0.00489277, 9.81979, 0.0152588, 0, -0.0305176, 20.9652, 91696.2
11002, 0, 0.0133301, 0.0594727, -0.00123047, 0.195711, 0.00489277, 9.80755, -0.0305176, -0.0305176, -0.0457764, 20.972, 91696.5
11012, 0, 0.0141504, 0.0635742, -0.00369141, 0.183479, 0.00733915, 9.80755, -0.0457764, 0.0305176, 0, 20.9618, 91696.1
11022, 0.00205078, 0.0145605, 0.0635742, -0.00410156, 0.190818, -0.00244638, 9.81979, 0.0152588, -0.0305176, -0.0152588, 20.9661, 91696
11032, 0.00205078, 0.0133301, 0.0639844, -0.00410156, 0.205496, 0.0146783, 9.79777, -0.0305176, 0.0457764, -0.0152588, 20.9564, 91696.2
11042, 0.00123047, 0.0150732, 0.0631641, -0.00543457, 0.139444, 0.0244638, 9.81489, -0.0305176, -0.0457764, -0.0305176, 20.9588, 91695.5
11062, 0.000410156, 0.0137402, 0.0631641, -0.00287109, 0.159015, -0.00733915, 9.79532, -0.0915527, -0.228882, 0.0762939, 20.9559, 91695.8
11072, 0.000820312, 0.0125098, 0.0631641, -0.00246094, 0.154122, -0.0122319, 9.81, -0.0610352, 0.152588, -0.0152588, 20.969, 91696.1
11082, 0.000820312, 0.0145605, 0.0611133, -0.00287109, 0.168801, -0.0244638, 9.80511, -0.0610352, -0.0762939, 0, 20.9549, 91695.8
11092, 0.000410156, 0.0154834, 0.0611133, -0.00502441, 0.136998, -0.0244638, 9.82468, -0.0152588, 0, -0.0305176, 20.9612, 91696.8
11102, 0.00164062, 0.0133301, 0.0627539, -0.00205078, 0.14189, -0.00244638, 9.78064, -0.0305176, -0.0915527, -0.0152588, 20.9591, 91696.2
11112, 0, 0.0133301, 0.0619336, -0.00205078, 0.136998, -0.063606, 9.82223, -0.0305176, 0.167847, 0, 20.9646, 91695.7
11122, 0, 0.0133301, 0.0619336, -0.00451172, 0.159015, 0.0146783, 9.74884, -0.106812, -0.473022, -0.0152588, 20.9599, 91696.4
11132, 0, 0.0141504, 0.0598828, -0.00246094, 0.0684988, -0.0195711, 9.9103, 0.0762939, 0.595093, 0.0152588, 20.9625, 91696.4
11152, 0.00123047, 0.017124, 0.0607031, -0.00246094, 0.0440349, 0.0269102, 9.92987, 0, 0.167847, -0.0305176, 20.9613, 91696
11162, -0.000820312, 0.017124, 0.0598828, -0.00246094, 0.225067, -0.0269102, 9.68279, -0.152588, -0.0610352, 0.0457764, 20.965, 91695.8
11172, 0.00123047, 0.0150732, 0.0615234, -0.00369141, 0.0464813, 0.0244638, 9.96168, 0.0152588, -0.213623, -0.0610352, 20.9748, 91696.1
11182, 0.00164062, 0.0125098, 0.0615234, -0.00410156, 0.227514, 0.0122319, 9.68768, -0.0457764, 0.198364, -0.0457764, 20.9611, 91696.1
11192, 0.00164062, 0.0154834, 0.0598828, -0.00410156, 0.146783, 0.0195711, 9.84425, -0.0915527, -0.289917, 0, 20.9585, 91696
11202, 0, 0.0141504, 0.0627539, -0.00369141, 0.156569, 0.0342494, 9.83691, -0.0610352, 0.0762939, 0.0152588, 20.9725, 91695.8
11212, 0, 0.0141504, 0.0611133, -0.00369141, 0.190818, 0.0220175, 9.79777, -0.0610352, -0.198364, -0.0152588, 20.9595, 91696.3
11232, 0, 0.0154834, 0.0631641, -0.00543457, 0.210389, 0.0146783, 9.81, -0.0457764, -0.12207, 0.0152588, 20.972, 91695.5
11242, 0, 0.0141504, 0.0615234, -0.00246094, 0.17614, -0.00978554, 9.83202, -0.0457764, -0.183105, 0, 20.9676, 91696
11252, 0.00164062, 0.0137402, 0.0623437, -0.00328125, 0.190818, -0.00244638, 9.80755, 0, -0.0762939, 0.0305176, 20.9744, 91695.6
11262, 0, 0.0125098, 0.0611133, -0.00328125, 0.163908, -0.0440349, 9.80021, -0.0152588, 0.0457764, 0, 20.967, 91696.6
11272, 0, 0.0125098, 0.0615234, -0.00328125, 0.117426, -0.00489277, 9.82468, 0.0305176, -0.244141, -0.0305176, 20.9469, 91695.7
11282, 0.00287109, 0.0167139, 0.0615234, -0.00410156, 0.124766, -0.00244638, 9.76107, 0.0762939, -0.0457764, -0.0610352, 20.9608, 91695.3
11292, 0.00287109, 0.0133301, 0.0611133, -0.00328125, 0.0905162, 0.0220175, 9.79288, -0.0152588, -0.0610352, -0.0762939, 20.9592, 91695.8
11302, 0.00164062, 0.0137402, 0.0619336, -0.00502441, 0.0562668, 0.0856234, 9.78554, -0.12207, -0.0152588, -0.0305176, 20.9591, 91696.1
11322, 0.000820312, 0.0120996, 0.0627539, -0.00328125, 0.0513741, 0.0513741, 9.77575, -0.0152588, 0.0305176, 0.0610352, 20.9498, 91696
11332, 0, 0.0129199, 0.0627539, -0.00287109, 0.0538205, 0.0611596, 9.80266, -0.0457764, -0.0152588, 0.0610352, 20.9648, 91696
11342, 0, 0.0141504, 0.060293, -0.00410156, 0.0146783, 0.0342494, 9.81734, 0.0610352, -0.0457764, 0.0762939, 20.9747, 91696.5
11352, -0.000410156, 0.0150732, 0.0611133, -0.00328125, 0.0464813, 0.00978554, 9.7782, -0.0762939, 0.0610352, 0.0305176, 20.9616, 91696
11362, 0.00123047, 0.0145605, 0.0627539, -0.00287109, 0.031803, -0.0171247, 9.75618, -0.0457764, -0.0305176, 0.0762939, 20.9614, 91695.9
11372, 0.00205078, 0.0145605, 0.0623437, -0.00287109, 0.0562668, -0.0366958, 9.79288, -0.0152588, 0.0457764, 0.0152588, 20.9603, 91696
11382, 0.00164062, 0.0154834, 0.0615234, -0.00502441, 0.063606, -0.0195711, 9.81, -0.0152588, 0.0305176, -0.0152588, 20.9601, 91696.1
11402, 0.000820312, 0.0158936, 0.0607031, -0.00328125, 0.0929626, 0.0171247, 9.7733, -0.0610352, 0.0610352, 0.0152588, 20.9573, 91696
11412, 0.000410156, 0.0133301, 0.0611133, -0.00543457, 0.122319, 0.031803, 9.78309, -0.0305176, 0.0305176, -0.0152588, 20.9594, 91696.2
11422, 0.00164062, 0.0133301, 0.0615234, -0.00543457, 0.144337, 0.0513741, 9.79288, -0.0152588, -0.0762939, -0.0305176, 20.9558, 91696.4
11432, 0.00123047, 0.0120996, 0.0594727, -0.00287109, 0.17614, 0.0513741, 9.82957, -0.0152588, 0.0305176, 0, 20.9563, 91695.8
11442, 0.000820312, 0.0158936, 0.0594727, -0.00543457, 0.190818, 0.0391421, 9.81489, -0.0305176, 0.0610352, -0.0152588, 20.9681, 91696.4
11452, 0.000820312, 0.0133301, 0.0615234, -0.00410156, 0.185925, 0.0269102, 9.82957, -0.137329, 0.0457764, 0.0152588, 20.972, 91696
11462, 0, 0.0125098, 0.0631641, -0.000820312, 0.200604, 0.00978554, 9.79777, -0.0305176, -0.0305176, 0.0305176, 20.9572, 91695.9
11472, 0.00246094, 0.0137402, 0.0607031, -0.000820312, 0.207943, -0.0269102, 9.82223, -0.0762939, 0.0610352, 0.0457764, 20.9675, 91696.3
11492, 0.00287109, 0.0137402, 0.0623437, -0.00287109, 0.227514, -0.0342494, 9.82957, -0.0457764, 0.0305176, 0.0915527, 20.9642, 91696.4
11502, 0.00287109, 0.0129199, 0.0623437, -0.000410156, 0.227514, -0.0342494, 9.81734, -0.106812, -0.0305176, 0.0762939, 20.9704, 91696.2
11512, 0.00205078, 0.0145605, 0.0611133, -0.00451172, 0.212835, -0.0366958, 9.79288, -0.0915527, -0.0152588, -0.0610352, 20.9638, 91695.8
11522, 0, 0.0129199, 0.0623437, -0.000820312, 0.215282, -0.0171247, 9.83202, -0.0152588, 0.0152588, -0.0457764, 20.9586, 91695.9
11532, -0.000410156, 0.0129199, 0.0623437, -0.000820312, 0.193264, -0.0195711, 9.83691, -0.0762939, 0, -0.0152588, 20.967, 91696.5
11542, 0.000820312, 0.0133301, 0.0623437, -0.00451172, 0.190818, -0.00733915, 9.80755, -0.0457764, 0.106812, 0.0152588, 20.9763, 91695.9
11552, 0.000820312, 0.0133301, 0.0598828, -0.00287109, 0.159015, 0.0220175, 9.80511, -0.0915527, 0, -0.0305176, 20.9704, 91696.2
11572, -0.000820312, 0.0116895, 0.060293, -0.00502441, 0.136998, 0.00244638, 9.80266, -0.167847, 0.0762939, 0.0610352, 20.9753, 91696.4
11582, -0.00205078, 0.0116895, 0.0611133, -0.00502441, 0.122319, 0.0171247, 9.82468, -0.0610352, 0.0915527, 0.0610352, 20.9743, 91696.3
11592, 0, 0.0141504, 0.0627539, -0.00328125, 0.107641, -0.00733915, 9.80266, -0.0610352, -0.0152588, -0.0305176, 20.9753, 91696.2
11602, 0.00205078, 0.0137402, 0.0627539, -0.00451172, 0.11498, 0.0122319, 9.80266, -0.0915527, 0.0152588, 0, 20.9641, 91695.8
11612, 0.00205078, 0.0145605, 0.0611133, -0.00287109, 0.107641, 0, 9.79777, -0.137329, 0.0305176, 0, 20.9732, 91695.9
11622, -0.000820312, 0.0137402, 0.0611133, -0.00205078, 0.0807307, -0.00244638, 9.79532, -0.106812, 0.0305176, 0.0152588, 20.9734, 91696.3
11632, 0.00164062, 0.0137402, 0.0627539, -0.00205078, 0.105195, 0.0146783, 9.80511, 0.0305176, 0.0305176, -0.0152588, 20.9672, 91695.9
11642, 0.00123047, 0.0163037, 0.060293, -0.00287109, 0.0929626, 0.00489277, 9.82712, -0.0610352, 0.0457764, -0.0152588, 20.9689, 91696.7
11662, 0.00328125, 0.0150732, 0.0619336, -0.00451172, 0.110087, 0.0269102, 9.79043, -0.0457764, 0.0457764, 0.0305176, 20.9737, 91696.5
11672, 0.000820312, 0.0141504, 0.0639844, -0.00410156, 0.110087, 0.00733915, 9.78798, -0.0762939, 0.0457764, 0.0305176, 20.9598, 91696.1
11682, -0.00123047, 0.0141504, 0.060293, -0.00410156, 0.107641, -0.00733915, 9.79043, -0.0915527, 0, 0, 20.9771, 91695.8
11692, -0.000410156, 0.0129199, 0.0615234, -0.00123047, 0.0978554, 0.0171247, 9.78798, -0.106812, 0.0610352, 0.0457764, 20.977, 91695.8
11702, 0.00246094, 0.0141504, 0.0615234, -0.00369141, 0.11498, -0.00489277, 9.82223, 0.0152588, 0, -0.0152588, 20.9671, 91696.1
11712, 0.00246094, 0.0129199, 0.0611133, -0.00328125, 0.144337, 0.00733915, 9.79532, -0.0457764, 0.0610352, 0.0152588, 20.9737, 91696.5
11722, 0.000410156, 0.0125098, 0.0623437, -0.00543457, 0.166354, -0.00244638, 9.79777, -0.0457764, 0.0762939, 0.0305176, 20.9737, 91696
11742, 0.00205078, 0.0158936, 0.0615234, -0.00328125, 0.171247, 0.0122319, 9.81489, -0.0305176, -0.0610352, -0.0152588, 20.9673, 91695.8
11752, 0.00287109, 0.0150732, 0.0615234, -0.00502441, 0.168801, 0.00978554, 9.82712, 0, 0.12207, 0.0305176, 20.9791, 91695.9
11762, 0.000820312, 0.0141504, 0.0623437, -0.00287109, 0.181032, -0.0122319, 9.81734, -0.0457764, 0.0762939, 0.0305176, 20.9555, 91696.2
11772, 0.000820312, 0.0133301, 0.0627539, -0.00287109, 0.17614, 0.00489277, 9.79532, -0.0762939, -0.0457764, 0.0305176, 20.9753, 91695.7
11782, 0, 0.0141504, 0.0594727, -0.00205078, 0.185925, -0.0122319, 9.80755, -0.0457764, 0.0152588, -0.0305176, 20.9742, 91695.9
11792, 0.000410156, 0.0141504, 0.0619336, -0.00205078, 0.185925, -0.00978554, 9.82223, 0.0305176, -0.0457764, 0, 20.9646, 91695.7
11802, 0.00246094, 0.0137402, 0.0631641, -0.00584473, 0.173693, 0, 9.81979, -0.0152588, -0.0305176, 0.0305176, 20.9632, 91695.7
11812, 0.00123047, 0.0133301, 0.0631641, -0.00369141, 0.171247, -0.0195711, 9.80266, -0.12207, -0.0915527, 0.0457764, 20.9675, 91695.5
11832, 0.000410156, 0.0150732, 0.0607031, -0.00205078, 0.156569, 0.00733915, 9.80511, -0.12207, 0.0152588, 0.0152588, 20.9697, 91696.1
11842, 0, 0.0150732, 0.0631641, -0.00205078, 0.168801, 0, 9.82223, -0.0915527, 0.0762939, 0.0305176, 20.9793, 91696.3
11852, 0.000820312, 0.0145605, 0.0644971, -0.00584473, 0.151676, 0.00978554, 9.81734, -0.0152588, 0.106812, 0.0610352, 20.9729, 91696.1
11862, 0, 0.0141504, 0.0644971, -0.00328125, 0.151676, 0.0146783, 9.80511, -0.0457764, 0.0152588, -0.0305176, 20.9737, 91695.8
11872, 0, 0.0141504, 0.0627539, -0.00543457, 0.139444, 0.0146783, 9.79043, -0.0915527, 0, 0, 20.9803, 91696
11882, 0.00123047, 0.0150732, 0.0607031, -0.00328125, 0.129658, 0.0171247, 9.77575, -0.0610352, -0.0762939, 0, 20.9682, 91695.9
11892, -0.000410156, 0.0150732, 0.0631641, -0.00328125, 0.119873, 0.00733915, 9.81734, -0.12207, 0.0610352, 0.0305176, 20.9655, 91696.1
11912, 0.000410156, 0.0145605, 0.0639844, -0.00123047, 0.117426, 0.00489277, 9.82957, -0.0610352, -0.0457764, 0.0610352, 20.965, 91696.2
11922, 0.000410156, 0.0133301, 0.0619336, -0.00246094, 0.132105, 0.0122319, 9.80021, 0, 0.12207, -0.0152588, 20.9569, 91695.8
11932, 0.00164062, 0.0163037, 0.0623437, -0.00164062, 0.102748, -0.00244638, 9.80755, -0.137329, -0.0915527, -0.0152588, 20.9587, 91696
11942, 0.00287109, 0.0163037, 0.0607031, -0.00584473, 0.122319, 0.00489277, 9.81734, -0.106812, 0.0610352, 0, 20.9595, 91695.8
11952, 0.000820312, 0.0163037, 0.0627539, -0.00584473, 0.11498, 0.00733915, 9.81, -0.106812, 0.0457764, 0.0762939, 20.9769, 91696.2
11962, 0.00164062, 0.0158936, 0.0627539, -0.00287109, 0.105195, -0.00978554, 9.81979, -0.0610352, -0.0152588, 0.0457764, 20.9785, 91696.2
11972, 0.00164062, 0.0150732, 0.0627539, -0.00666504, 0.112534, 0, 9.79288, -0.0610352, 0.0152588, -0.0305176, 20.9603, 91696.5
11982, 0.00164062, 0.0133301, 0.060293, -0.00328125, 0.124766, 0, 9.82223, -0.0457764, -0.0305176, 0, 20.9755, 91696.4
12002, 0.000410156, 0.0158936, 0.0635742, -0.00410156, 0.146783, -0.00244638, 9.79777, -0.0610352, -0.0152588, 0.0152588, 20.9808, 91695.9
12012, 0.00164062, 0.0141504, 0.0615234, -0.00287109, 0.168801, 0.00978554, 9.80021, -0.0610352, -0.0762939, 0.0610352, 20.9695, 91696.4
12022, 0.000410156, 0.0129199, 0.0615234, -0.00246094, 0.144337, 0.00733915, 9.81734, -0.0762939, 0, 0, 20.9596, 91696.5
12032, 0.000410156, 0.0137402, 0.0623437, -0.00246094, 0.17614, -0.0171247, 9.7733, -0.244141, 0.12207, 0.0457764, 20.9744, 91696
12042, 0.00287109, 0.0133301, 0.0607031, -0.00451172, 0.11498, 0.0391421, 9.86137, 0, -0.305176, 0, 20.9665, 91696.2
12052, 0.000820312, 0.0133301, 0.0639844, -0.00451172, 0.183479, -0.0244638, 9.79777, -0.0305176, 0.640869, 0.0457764, 20.9723, 91696.2
12062, -0.000410156, 0.0129199, 0.0615234, -0.00410156, 0.181032, 0.0195711, 9.7782, -0.0762939, -0.717163, 0.0457764, 20.9712, 91696.2
12072, 0.00123047, 0.0154834, 0.0615234, -0.00451172, 0.0880698, -0.0171247, 9.88829, -0.0762939, 0.671387, 0.0610352, 20.9673, 91696.2
12092, -0.000410156, 0.0137402, 0.0615234, -0.00328125, 0.0489277, -0.0122319, 9.93477, -0.0610352, 0.228882, -0.0305176, 20.9584, 91696.3
12102, 0.000410156, 0.0137402, 0.0611133, -0.00328125, 0.22996, -0.0122319, 9.73416, -0.0915527, 0.106812, -0.0152588, 20.965, 91695.6
12112, 0.00164062, 0.0154834, 0.0635742, -0.00328125, 0.127212, -0.0171247, 9.84914, -0.137329, -0.183105, 0.0152588, 20.9565, 91696
12122, 0.00123047, 0.0158936, 0.0635742, -0.00205078, 0.173693, -0.00489277, 9.79532, -0.12207, 0.350952, 0.0305176, 20.9608, 91695.9
12132, 0.00123047, 0.0150732, 0.0607031, -0.00543457, 0.156569, 0.00733915, 9.80755, -0.0152588, -0.335693, -0.0305176, 20.9726, 91696.3
12142, 0.000410156, 0.0150732, 0.0631641, -0.00410156, 0.129658, -0.00244638, 9.82712, -0.12207, 0.274658, 0.0152588, 20.9686, 91696.5
12152, 0.00123047, 0.0129199, 0.0623437, -0.00410156, 0.185925, 0.0269102, 9.7782, -0.0762939, -0.0762939, 0.0305176, 20.9594, 91696
12172, 0.000820312, 0.0137402, 0.0611133, -0.00287109, 0.159015, 0.0146783, 9.78554, -0.12207, 0, -0.0152588, 20.9708, 91696.8
12182, 0.00205078, 0.0133301, 0.0639844, -0.00543457, 0.132105, 0.00733915, 9.81, -0.0762939, 0.0457764, 0, 20.9732, 91696
12192, 0.00205078, 0.0158936, 0.0607031, -0.00287109, 0.14189, 0.00733915, 9.81979, -0.0610352, 0.0152588, 0, 20.9683, 91696.1
12202, 0.000410156, 0.0129199, 0.0623437, -0.00287109, 0.129658, 0.00978554, 9.79532, -0.0915527, 0, 0.0305176, 20.9652, 91696
12212, 0, 0.0129199, 0.0611133, -0.00287109, 0.117426, 0.0122319, 9.81734, -0.106812, 0.0152588, 0.0457764, 20.9488, 91695.4
12222, 0.00123047, 0.0145605, 0.0631641, -0.00502441, 0.154122, -0.00489277, 9.79288, -0.0610352, -0.0610352, 0.0152588, 20.9525, 91696.4
12232, 0.000410156, 0.0137402, 0.0631641, -0.00246094, 0.124766, 0.00244638, 9.82957, -0.0305176, 0.12207, 0.0152588, 20.9586, 91695.8
12242, 0.000410156, 0.0141504, 0.0627539, -0.00164062, 0.139444, 0.0220175, 9.81245, -0.0457764, -0.0152588, 0.0762939, 20.9658, 91695.7
12262, 0.00164062, 0.0154834, 0.0639844, -0.00164062, 0.144337, 0.00733915, 9.78064, -0.0610352, -0.0610352, 0.0305176, 20.9562, 91696
12272, 0.00205078, 0.0154834, 0.0619336, -0.000820312, 0.122319, 0.00489277, 9.81979, -0.0457764, -0.0305176, 0.0152588, 20.9625, 91696.5
12282, 0, 0.0129199, 0.0619336, -0.00123047, 0.132105, 0.00733915, 9.80755, -0.0915527, 0.0152588, 0, 20.9648, 91696.1
12292, 0, 0.0158936, 0.060293, -0.00287109, 0.146783, 0.00978554, 9.80755, -0.0457764, 0, 0.0152588, 20.9703, 91695.8
12302, 0.00246094, 0.0150732, 0.0631641, -0.00328125, 0.127212, -0.00244638, 9.80511, -0.0152588, -0.0610352, 0.0610352, 20.9714, 91696.2
12312, -0.000820312, 0.0150732, 0.0615234, -0.00328125, 0.136998, 0.00978554, 9.81245, -0.0152588, 0.0457764, 0, 20.9568, 91696
12322, 0.000410156, 0.0129199, 0.0623437, -0.00287109, 0.139444, 0.00244638, 9.80755, -0.152588, -0.0915527, 0.0152588, 20.9645, 91696.1
12342, 0.00123047, 0.0137402, 0.0627539, -0.000410156, 0.161461, -0.00244638, 9.81489, -0.0457764, 0.0305176, 0.0610352, 20.965, 91695.9
12352, 0.000820312, 0.0154834, 0.0611133, -0.00502441, 0.154122, 0.00489277, 9.81, -0.0762939, 0.0457764, -0.0610352, 20.9644, 91696.2
12362, 0.00123047, 0.0145605, 0.0631641, -0.00502441, 0.159015, 0.00733915, 9.80755, -0.0762939, 0.106812, 0, 20.9668, 91696.3
12372, 0.000820312, 0.0145605, 0.0623437, -0.00410156, 0.161461, 0.00489277, 9.80511, -0.0762939, 0, -0.0152588, 20.9661, 91695.4
12382, 0.00123047, 0.0150732, 0.0623437, -0.00246094, 0.161461, -0.00489277, 9.81245, -0.0915527, 0.0457764, 0.0152588, 20.9738, 91696
12392, -0.00123047, 0.0163037, 0.0635742, -0.00287109, 0.146783, -0.0122319, 9.83202, -0.0762939, -0.0152588, 0.0610352, 20.9646, 91695.8
12402, -0.00123047, 0.0150732, 0.0639844, -0.00164062, 0.154122, 0.0122319, 9.80755, -0.0915527, 0.137329, -0.0152588, 20.9642, 91696.2
12412, -0.00205078, 0.0150732, 0.0631641, -0.00502441, 0.136998, 0.031803, 9.80021, -0.0305176, -0.0152588, 0, 20.97, 91696
12432, 0, 0.0154834, 0.0627539, -0.00246094, 0.159015, 0.00733915, 9.80266, -0.106812, 0.0152588, -0.0457764, 20.9714, 91696.4
12442, 0.00287109, 0.0150732, 0.0627539, -0.000820312, 0.132105, 0.0195711, 9.80755, -0.137329, -0.0305176, -0.0152588, 20.9591, 91696
12452, 0.00287109, 0.0167139, 0.0623437, -0.00369141, 0.134551, 0.00733915, 9.79288, -0.0610352, 0.0762939, -0.0152588, 20.9618, 91695.9
12462, 0.000820312, 0.0141504, 0.0623437, -0.00246094, 0.139444, 0.00978554, 9.82468, -0.0305176, 0.0305176, 0.0457764, 20.9629, 91696.2
12472, 0.000410156, 0.0141504, 0.0619336, -0.00246094, 0.134551, 0.0146783, 9.80021, -0.0152588, -0.0152588, 0.0152588, 20.9737, 91696.2
12482, 0.00205078, 0.0158936, 0.0623437, -0.00205078, 0.136998, -0.00489277, 9.79043, -0.0915527, 0.0915527, 0.0610352, 20.9667, 91696.1
12492, 0.00123047, 0.0125098, 0.0623437, -0.000820312, 0.14189, -0.0146783, 9.82468, -0.0457764, 0, 0, 20.9619, 91696.6
12512, -0.000820312, 0.0154834, 0.0631641, -0.00246094, 0.129658, 0.00489277, 9.83446, -0.0305176, 0.0305176, 0, 20.9679, 91695.7
12522, -0.000410156, 0.0154834, 0.0615234, -0.00246094, 0.154122, -0.00489277, 9.80755, -0.12207, 0.0305176, -0.0152588, 20.9697, 91695.2
12532, 0.000410156, 0.017124, 0.0623437, -0.00451172, 0.132105, 0.00489277, 9.82468, -0.12207, 0.0305176, 0.0305176, 20.9696, 91696.3
12542, -0.00164062, 0.0145605, 0.0623437, -0.00123047, 0.151676, 0.0146783, 9.78309, -0.0762939, 0.106812, 0, 20.9725, 91696
12552, 0.00164062, 0.0150732, 0.0631641, -0.000820312, 0.156569, -0.00489277, 9.81245, -0.0915527, 0.106812, -0.0305176, 20.9752, 91696
12562, 0.00164062, 0.017124, 0.0631641, -0.000410156, 0.139444, -0.00978554, 9.81979, -0.0152588, 0, -0.0152588, 20.9679, 91695.9
12572, 0.00287109, 0.017124, 0.0631641, -0.000410156, 0.161461, 0.00244638, 9.80511, 0, 0.0762939, 0.0152588, 20.9626, 91695.7
12582, 0.00164062, 0.0145605, 0.0644971, -0.00369141, 0.14189, 0.0122319, 9.82223, -0.0915527, 0.0762939, -0.0152588, 20.9781, 91696.3
12602, 0.00205078, 0.0145605, 0.0619336, -0.00246094, 0.151676, 0, 9.81979, -0.0305176, 0.0457764, 0.106812, 20.9698, 91695.8
12612, 0.00205078, 0.0137402, 0.0635742, -0.00410156, 0.154122, 0.0220175, 9.81, -0.106812, 0.0457764, 0.0152588, 20.9757, 91695.8
12622, 0.000410156, 0.0154834, 0.0631641, -0.00287109, 0.154122, 0.00244638, 9.81489, -0.106812, -0.0610352, -0.0610352, 20.9693, 91696.3
12632, 0.000410156, 0.0154834, 0.0615234, -0.00287109, 0.168801, -0.00244638, 9.79777, -0.0610352, 0.0152588, 0, 20.9679, 91695.8
12642, 0.00246094, 0.0167139, 0.0619336, -0.00328125, 0.159015, 0.0122319, 9.81245, -0.0915527, -0.0305176, 0, 20.9705, 91696.3
12652, -0.00287109, 0.0125098, 0.0619336, -0.00451172, 0.149229, -0.0171247, 9.82957, 0.0305176, 0.106812, 0.0305176, 20.9682, 91695.7
12662, -0.00287109, 0.0145605, 0.0615234, -0.00287109, 0.171247, 0, 9.78064, -0.0915527, 0, -0.0152588, 20.9668, 91696.5
12682, 0.000820312, 0.0154834, 0.0644971, -0.00451172, 0.181032, -0.00978554, 9.79043, -0.152588, -0.0915527, -0.0152588, 20.9757, 91696.3
12692, -0.000820312, 0.0145605, 0.0631641, -0.00369141, 0.139444, -0.00244638, 9.81489, -0.137329, 0.183105, -0.0305176, 20.9654, 91695.8
12702, 0.00164062, 0.0154834, 0.0631641, -0.00410156, 0.144337, 0, 9.81734, -0.0457764, -0.0457764, -0.0152588, 20.9711, 91696.3
12712, 0.00164062, 0.0150732, 0.0644971, -0.00410156, 0.146783, -0.00733915, 9.81, -0.0610352, 0.0457764, 0, 20.9662, 91696
12722, 0.000410156, 0.0150732, 0.0623437, -0.00328125, 0.122319, 0.0195711, 9.82957, -0.0610352, -0.0305176, 0.0457764, 20.9747, 91695.9
12732, -0.000820312, 0.0150732, 0.0649072, -0.00328125, 0.127212, 0.0146783, 9.79288, -0.0762939, 0, 0.0610352, 20.9632, 91696.1
12742, 0.00164062, 0.0150732, 0.0623437, -0.00369141, 0.129658, -0.00244638, 9.81, -0.0457764, 0.106812, 0, 20.9693, 91696
12752, 0.000820312, 0.0141504, 0.0623437, -0.00246094, 0.119873, 0.0146783, 9.80266, -0.0762939, -0.0457764, 0.0762939, 20.9724, 91696.1
12772, 0.00205078, 0.0167139, 0.0649072, -0.00123047, 0.110087, 0.0146783, 9.81245, -0.0762939, 0.0305176, -0.0305176, 20.9659, 91696
12782, 0.00164062, 0.0167139, 0.0611133, -0.00123047, 0.117426, 0.00978554, 9.78064, -0.0610352, 0.0152588, 0, 20.9654, 91696.2
12792, -0.000410156, 0.0158936, 0.0635742, -0.00205078, 0.11498, 0.00244638, 9.80511, -0.0762939, 0, 0.0152588, 20.9615, 91695.9
12802, -0.000410156, 0.0145605, 0.0635742, -0.00369141, 0.124766, 0.00244638, 9.79532, 0.0305176, 0.0152588, -0.0305176, 20.9614, 91696.1
12812, -0.000410156, 0.0129199, 0.0631641, -0.00451172, 0.112534, -0.00978554, 9.78309, -0.0915527, -0.0305176, 0.0152588, 20.9639, 91696.3
12822, -0.000410156, 0.0154834, 0.0644971, -0.00287109, 0.11498, 0, 9.80266, -0.0457764, -0.0305176, 0.0152588, 20.9763, 91696.2
12832, 0.000410156, 0.0137402, 0.0623437, -0.00246094, 0.124766, 0.00978554, 9.81245, -0.0152588, -0.0152588, 0, 20.9644, 91696.2
12852, 0.00246094, 0.0167139, 0.0611133, -0.00205078, 0.136998, 0.00489277, 9.80755, -0.0457764, -0.0457764, 0.0305176, 20.9721, 91695.6
12862, 0.00369141, 0.0141504, 0.0611133, -0.00410156, 0.124766, 0.0171247, 9.80021, -0.0762939, -0.0152588, 0.0457764, 20.9698, 91695.7
12872, 0.00369141, 0.0158936, 0.0619336, -0.00205078, 0.149229, 0.0171247, 9.81, -0.0305176, 0.0457764, 0.0305176, 20.9769, 91696
12882, 0.000820312, 0.0141504, 0.0627539, -0.00410156, 0.159015, 0.00244638, 9.80021, -0.0152588, -0.0152588, 0.0610352, 20.965, 91696.1
12892, -0.000410156, 0.0141504, 0.0627539, -0.00410156, 0.154122, 0.0195711, 9.80511, -0.0610352, 0.0457764, -0.0152588, 20.9625, 91696.5
12902, 0.000410156, 0.0125098, 0.0631641, -0.00328125, 0.168801, 0.00489277, 9.80266, -0.0305176, 0.0152588, 0.0305176, 20.9564, 91696.2
12912, 0.000410156, 0.0154834, 0.0631641, -0.000820312, 0.181032, -0.0195711, 9.81245, -0.0152588, 0.0305176, 0.0305176, 20.9697, 91695.9
12922, 0.000410156, 0.0150732, 0.0623437, -0.00205078, 0.159015, -0.00978554, 9.83936, -0.0762939, 0, 0.0305176, 20.9704, 91696.1
12942, -0.000820312, 0.0150732, 0.0639844, -0.00328125, 0.17614, -0.00489277, 9.81489, -0.0305176, 0.0305176, 0.0457764, 20.9692, 91695.7
12952, 0.000410156, 0.0163037, 0.0623437, -0.00451172, 0.151676, -0.00978554, 9.81245, -0.0762939, 0.0762939, 0.0457764, 20.9633, 91696.2
12962, -0.000820312, 0.0137402, 0.0623437, -0.00543457, 0.168801, 0.0195711, 9.80755, -0.0457764, 0.0610352, -0.0305176, 20.9668, 91695.9
12972, 0.00123047, 0.0158936, 0.0623437, -0.00287109, 0.166354, 0.0171247, 9.81245, -0.106812, 0, 0.0457764, 20.957, 91696.3
12982, 0.00123047, 0.0145605, 0.060293, -0.00410156, 0.149229, 0.0171247, 9.79532, 0, 0.0762939, 0.0457764, 20.9586, 91696.6
12992, 0.00164062, 0.0145605, 0.0623437, -0.00410156, 0.151676, 0.0122319, 9.79288, -0.0915527, 0.0457764, 0.0305176, 20.9658, 91696.2
13002, 0, 0.0137402, 0.0635742, -0.00164062, 0.149229, 0.00978554, 9.80021, -0.0762939, 0, 0.0610352, 20.9578, 91696.3
13022, 0.00410156, 0.0137402, 0.0631641, -0.00369141, 0.151676, 0, 9.80021, -0.12207, -0.0305176, 0.0305176, 20.9591, 91696.4
13032, 0.00410156, 0.0129199, 0.0627539, -0.00369141, 0.146783, 0.00978554, 9.80755, -0.0305176, 0.0457764, -0.0610352, 20.9707, 91696.4
13042, 0.000410156, 0.0129199, 0.0627539, -0.00246094, 0.14189, -0.00733915, 9.81, -0.0152588, 0.0457764, -0.0152588, 20.9656, 91696.4
13052, 0.00246094, 0.0129199, 0.0644971, -0.00246094, 0.132105, -0.00733915, 9.79532, -0.106812, -0.0457764, 0, 20.972, 91696.5
13062, 0.000410156, 0.0145605, 0.0635742, -0.00287109, 0.132105, -0.0195711, 9.80755, -0.0305176, 0.0610352, 0.0305176, 20.9621, 91696.1
13072, 0.000820312, 0.0150732, 0.0635742, -0.00164062, 0.132105, -0.0244638, 9.79043, -0.0610352, 0.0457764, 0.0305176, 20.9673, 91695.8
13082, 0.000820312, 0.0154834, 0.0631641, -0.00451172, 0.124766, -0.0195711, 9.79532, -0.0457764, 0.0610352, 0, 20.9731, 91696
13092, 0.000410156, 0.0129199, 0.0657275, -0.00164062, 0.119873, -0.0146783, 9.80266, -0.0610352, 0.12207, 0.0305176, 20.9721, 91696.1
13112, -0.000820312, 0.0150732, 0.0619336, -0.000410156, 0.117426, -0.00978554, 9.79288, -0.0152588, 0.0457764, 0.0305176, 20.9694, 91696
13122, -0.000820312, 0.0137402, 0.0619336, -0.00328125, 0.119873, -0.00978554, 9.80755, 0, 0.0152588, -0.0305176, 20.9614, 91696.1
13132, -0.000820312, 0.0141504, 0.0623437, -0.00164062, 0.11498, 0.0220175, 9.79777, -0.0457764, -0.0457764, 0.0457764, 20.9711, 91696.1
13142, 0.000820312, 0.0129199, 0.0619336, -0.00502441, 0.129658, 0.0366958, 9.81, -0.0610352, 0.0457764, -0.0152588, 20.965, 91696.2
13152, 0.000410156, 0.0129199, 0.0631641, -0.00502441, 0.127212, 0.00978554, 9.80511, -0.0457764, 0.0762939, 0, 20.9659, 91696
13162, 0.000820312, 0.0145605, 0.0615234, -0.00328125, 0.127212, 0.0220175, 9.79532, -0.0457764, -0.0305176, 0.0610352, 20.9554, 91696.3
13172, 0.00164062, 0.0141504, 0.0615234, -0.00205078, 0.127212, 0.0171247, 9.79777, -0.0152588, 0.0762939, 0, 20.9638, 91696
13192, 0.00246094, 0.0116895, 0.0631641, -0.00205078, 0.134551, -0.00978554, 9.80755, -0.0610352, 0.106812, 0.0610352, 20.9647, 91696.3
13202, 0.000820312, 0.0116895, 0.0635742, -0.00205078, 0.127212, -0.0366958, 9.79043, -0.0762939, 0.0915527, 0.0152588, 20.963, 91695.8
13212, 0.00123047, 0.0150732, 0.060293, -0.00246094, 0.14189, -0.00489277, 9.81, -0.0762939, -0.0305176, -0.0152588, 20.9683, 91696.2
13222, 0.00287109, 0.0150732, 0.060293, -0.00164062, 0.151676, -0.0195711, 9.81, -0.0305176, 0.0457764, 0.0152588, 20.9622, 91696
13232, 0, 0.0129199, 0.0619336, -0.00328125, 0.159015, 0.00244638, 9.81489, -0.0610352, 0.0610352, 0.0305176, 20.9537, 91695.8
13242, 0, 0.0116895, 0.0623437, -0.00369141, 0.146783, -0.00244638, 9.81489, -0.12207, 0, 0.0305176, 20.9652, 91696.6
13252, 0, 0.0116895, 0.0623437, -0.00287109, 0.163908, 0.0244638, 9.82468, 0, 0, 0, 20.967, 91695.4
13262, 0.00246094, 0.0112793, 0.0615234, -0.00287109, 0.178586, 0.0244638, 9.81245, -0.0915527, 0, 0, 20.9603, 91696
13282, 0.00123047, 0.0133301, 0.0619336, -0.00246094, 0.168801, 0.00978554, 9.81979, 0, 0.0457764, 0.0610352, 20.9679, 91696.1
13292, 0.00123047, 0.0150732, 0.0631641, -0.00328125, 0.171247, 0.0269102, 9.82223, -0.0610352, 0.0915527, 0.0457764, 20.9615, 91696
13302, -0.00123047, 0.0150732, 0.0627539, -0.00328125, 0.166354, -0.00244638, 9.81734, -0.0152588, -0.0152588, 0.0457764, 20.9557, 91695.7
13312, 0.00123047, 0.0150732, 0.0653174, -0.00328125, 0.166354, -0.0171247, 9.82468, -0.0305176, 0.0152588, 0.0305176, 20.9575, 91695.9
13322, 0.000820312, 0.0133301, 0.0607031, -0.00410156, 0.171247, -0.0146783, 9.80755, -0.0610352, -0.0152588, 0.0152588, 20.9613, 91695.7
13332, 0, 0.0137402, 0.0607031, -0.00164062, 0.156569, -0.0146783, 9.81734, -0.0305176, 0.106812, 0.0152588, 20.9623, 91696.2
13342, 0.00123047, 0.0158936, 0.0619336, -0.00205078, 0.161461, -0.0220175, 9.81734, -0.0610352, 0.0610352, -0.0457764, 20.9659, 91696
13362, 0.000820312, 0.0150732, 0.0611133, -0.00164062, 0.14189, -0.00489277, 9.80755, -0.0457764, -0.0305176, -0.0305176, 20.9612, 91696.7
13372, 0.00123047, 0.0145605, 0.0615234, -0.00451172, 0.136998, 0.0195711, 9.80755, -0.0457764, -0.0457764, -0.0457764, 20.9643, 91696.2
13382, 0.00123047, 0.0154834, 0.0615234, -0.00123047, 0.122319, 0.0293566, 9.79777, -0.137329, 0.137329, -0.0305176, 20.9575, 91696
13392, 0.00246094, 0.0137402, 0.0615234, -0.00369141, 0.122319, 0.0415885, 9.80511, -0.0915527, 0.106812, 0.0305176, 20.9671, 91695.8
13402, 0.00246094, 0.0154834, 0.0635742, -0.00451172, 0.102748, 0.0293566, 9.79288, -0.0457764, 0.0152588, 0.0457764, 20.9679, 91696
13412, 0.00205078, 0.0154834, 0.0635742, -0.00451172, 0.110087, 0.00978554, 9.78798, -0.0915527, -0.0915527, 0, 20.9696, 91696
13422, 0.000820312, 0.0129199, 0.0627539, -0.00287109, 0.112534, 0.0195711, 9.79777, -0.0610352, 0, 0.0762939, 20.9625, 91696.2
13432, 0.00164062, 0.0137402, 0.0627539, -0.00246094, 0.102748, 0, 9.78798, -0.0610352, 0.0457764, 0, 20.9622, 91696.4
13452, 0.00205078, 0.0141504, 0.0615234, -0.00287109, 0.105195, 0.0195711, 9.79532, -0.0457764, 0.106812, 0.0305176, 20.9625, 91696.1
13462, -0.000410156, 0.0141504, 0.05896, -0.00205078, 0.119873, 0.00489277, 9.79532, -0.0305176, 0.0457764, 0.0305176, 20.959, 91696.2
13472, 0.000410156, 0.0158936, 0.0619336, -0.00205078, 0.124766, -0.00489277, 9.79288, -0.0457764, 0, 0.0305176, 20.9694, 91695.7
13482, 0.00246094, 0.0150732, 0.0598828, -0.00328125, 0.124766, 0.00244638, 9.80755, -0.0457764, 0.0152588, 0, 20.9618, 91696.5
13492, 0.000820312, 0.0154834, 0.0598828, -0.00205078, 0.14189, 0.00733915, 9.78798, -0.0762939, 0.0152588, -0.0915527, 20.9731, 91695.8
13502, 0.000820312, 0.0137402, 0.0619336, -0.00287109, 0.156569, 0.0171247, 9.80266, -0.0457764, 0, 0.0305176, 20.9745, 91696.1
13512, 0.00369141, 0.0154834, 0.0635742, -0.00246094, 0.166354, 0.00733915, 9.81979, 0.0457764, 0.12207, -0.0457764, 20.972, 91696.1
13522, -0.000820312, 0.0154834, 0.0623437, -0.00246094, 0.163908, -0.00489277, 9.80021, -0.0762939, 0.0610352, 0.0457764, 20.9634, 91696.3
13542, 0, 0.0145605, 0.0619336, -0.00246094, 0.156569, -0.00489277, 9.81245, -0.0457764, -0.0152588, 0.0610352, 20.9669, 91695.7
13552, 0.000410156, 0.0154834, 0.0623437, -0.00328125, 0.181032, 0, 9.80021, -0.0457764, 0.106812, -0.0305176, 20.9723, 91695.9
13562, 0.000410156, 0.0129199, 0.0615234, -0.000820312, 0.190818, -0.0244638, 9.81489, -0.0305176, 0.0305176, 0.0152588, 20.9619, 91696.1
13572, 0.000820312, 0.0129199, 0.0619336, -0.000820312, 0.17614, 0.00244638, 9.81734, 0.0457764, -0.0610352, 0.0305176, 20.9772, 91696.6
13582, 0.000410156, 0.0145605, 0.0644971, -0.00328125, 0.161461, -0.00244638, 9.81245, -0.0762939, 0.0305176, 0.0457764, 20.9595, 91696
13592, 0.00205078, 0.0129199, 0.0644971, -0.00287109, 0.168801, -0.0122319, 9.81734, -0.0762939, 0.0915527, 0.0762939, 20.9613, 91695.6
13602, 0.000410156, 0.0145605, 0.0607031, -0.00369141, 0.173693, -0.00978554, 9.80755, -0.0305176, -0.0457764, 0.0152588, 20.9559, 91696
13622, 0.00123047, 0.0141504, 0.0627539, -0.00287109, 0.159015, -0.00978554, 9.80021, -0.0915527, 0.0152588, -0.0457764, 20.9771, 91695.8
13632, -0.000820312, 0.0150732, 0.0623437, -0.00410156, 0.144337, -0.00244638, 9.81979, -0.0610352, -0.0152588, 0, 20.9666, 91695.9
13642, 0.00328125, 0.0150732, 0.0623437, -0.00246094, 0.136998, 0.00489277, 9.81979, -0.0610352, 0.0305176, 0.0152588, 20.9579, 91695.9
13652, 0.00123047, 0.0150732, 0.0644971, -0.00123047, 0.139444, 0.00978554, 9.81734, -0.0610352, -0.0152588, -0.0457764, 20.9645, 91695.9
13662, 0.00123047, 0.0154834, 0.0627539, -0.00246094, 0.119873, -0.00244638, 9.81245, -0.106812, 0.0915527, 0.0152588, 20.9556, 91695.9
13672, 0.000820312, 0.0154834, 0.0627539, -0.00164062, 0.132105, 0.0122319, 9.80021, -0.0915527, -0.0152588, 0.0305176, 20.9714, 91696.2
13682, 0.00246094, 0.0133301, 0.0619336, -0.00164062, 0.117426, 0.0122319, 9.78064, -0.0762939, -0.0152588, 0, 20.969, 91696
13692, -0.00164062, 0.0137402, 0.0619336, -0.000820312, 0.117426, 0.0171247, 9.80021, -0.0457764, 0.0305176, -0.0305176, 20.9701, 91695.7
13712, 0.00287109, 0.0141504, 0.0615234, -0.00369141, 0.102748, 0.0122319, 9.78064, -0.0457764, 0.137329, 0.0152588, 20.9668, 91696.2
13722, 0.00164062, 0.0125098, 0.0623437, -0.00328125, 0.112534, 0.00978554, 9.80755, -0.106812, 0.0152588, 0.0152588, 20.9725, 91695.8
13732, -0.000820312, 0.0125098, 0.0619336, -0.00328125, 0.117426, 0.00978554, 9.80021, -0.0610352, 0, 0.0457764, 20.9709, 91696.2
13742, 0.00410156, 0.0145605, 0.0635742, -0.00328125, 0.102748, 0.0220175, 9.78798, -0.0305176, 0.0457764, 0.0305176, 20.959, 91696.1
13752, -0.00164062, 0.0141504, 0.0635742, -0.00502441, 0.132105, 0.00489277, 9.81245, -0.0457764, 0.0915527, -0.0152588, 20.9707, 91696.9
13762, 0.00164062, 0.0137402, 0.0615234, -0.00246094, 0.129658, 0.0195711, 9.81489, -0.0305176, 0, 0.0152588, 20.9658, 91696.6
13772, 0.00164062, 0.0150732, 0.0635742, -0.00246094, 0.139444, 0.00733915, 9.78798, -0.0457764, 0.0152588, -0.0152588, 20.9668, 91696.2
13792, 0.00123047, 0.0120996, 0.0598828, -0.00287109, 0.134551, 0, 9.79777, -0.0610352, -0.0305176, 0.0457764, 20.9741, 91696.5
13802, 0.000410156, 0.0150732, 0.0598828, -0.00369141, 0.149229, -0.00978554, 9.79288, -0.0610352, 0, 0.0152588, 20.9576, 91696.6
13812, 0.000410156, 0.0133301, 0.0611133, -0.00328125, 0.156569, -0.00489277, 9.80511, -0.0915527, 0.0152588, 0.0610352, 20.9573, 91695.7
13822, 0.000410156, 0.0145605, 0.0607031, -0.00205078, 0.166354, -0.00244638, 9.81, -0.106812, 0.0915527, 0.0457764, 20.9655, 91696
13832, -0.000410156, 0.0145605, 0.060293, -0.00205078, 0.154122, 0.00244638, 9.81489, -0.0610352, 0.0610352, 0, 20.9707, 91695.9
13842, -0.000410156, 0.0137402, 0.0611133, -0.00246094, 0.173693, 0.00489277, 9.81, -0.0152588, 0.0152588, 0.0305176, 20.9647, 91695.8
13852, -0.000410156, 0.0163037, 0.0611133, -0.00246094, 0.17614, 0.00733915, 9.81979, -0.0762939, 0.0152588, 0.0610352, 20.9715, 91696.2
13862, 0.000820312, 0.0158936, 0.0615234, -0.00287109, 0.17614, -0.0244638, 9.82223, -0.12207, 0.0457764, 0, 20.9554, 91695.4
13882, 0.00123047, 0.0137402, 0.0627539, -0.00164062, 0.173693, -0.00244638, 9.80755, -0.0762939, 0, 0.0457764, 20.954, 91696
13892, 0.00164062, 0.0133301, 0.0619336, -0.00164062, 0.17614, -0.00733915, 9.82223, -0.0915527, -0.0152588, -0.0457764, 20.9669, 91695.7
13902, 0.000410156, 0.0145605, 0.0619336, -0.00123047, 0.173693, 0.00733915, 9.80021, -0.0915527, 0.0457764, 0.0305176, 20.9567, 91696.2
13912, 0.000410156, 0.0145605, 0.0635742, -0.00369141, 0.156569, -0.00244638, 9.80266, -0.106812, 0.0457764, 0, 20.9651, 91696.2
13922, 0.000410156, 0.0154834, 0.0631641, -0.00205078, 0.171247, -0.00978554, 9.81245, -0.0457764, 0.0762939, 0.0305176, 20.9728, 91695.8
13932, -0.000410156, 0.017124, 0.0627539, -0.00410156, 0.154122, -0.0244638, 9.79777, -0.12207, 0.0305176, 0, 20.9672, 91696
13942, 0.000820312, 0.017124, 0.0649072, -0.00410156, 0.144337, 0.00489277, 9.81, -0.0762939, 0.0152588, 0, 20.9695, 91695.8
13962, 0.00205078, 0.0154834, 0.0611133, -0.00328125, 0.122319, -0.00733915, 9.80511, -0.0610352, 0.0610352, 0, 20.9686, 91696.6
13972, 0.00246094, 0.0158936, 0.0635742, -0.00328125, 0.136998, 0.0122319, 9.81734, 0, 0.0305176, 0.0610352, 20.9687, 91695
13982, 0.00246094, 0.0145605, 0.0644971, -0.00369141, 0.136998, 0.00978554, 9.81979, -0.0610352, 0.0610352, 0.0152588, 20.9617, 91696.3
14032, 0.00205078, 0.0129199, 0.0623437, -0.00164062, 0.117426, 0.0195711, 9.81, -0.167847, 0.0762939, 0.0762939, 20.9694, 91696.2
14042, 0.000410156, 0.0129199, 0.0619336, -0.00164062, 0.117426, 0.0171247, 9.80511, -0.152588, -0.0152588, 0.0152588, 20.9575, 91696.1
14052, -0.00123047, 0.0133301, 0.0635742, 0, 0.129658, 0.00978554, 9.80755, -0.12207, -0.0457764, 0.0457764, 20.9595, 91696.8
14062, 0.00205078, 0.0137402, 0.0635742, -0.00410156, 0.117426, 0.00978554, 9.80021, -0.0762939, 0.0305176, -0.0305176, 20.9782, 91696.1
14072, 0.00164062, 0.0150732, 0.0623437, -0.00369141, 0.136998, -0.00489277, 9.81489, -0.106812, 0.0152588, -0.0305176, 20.9635, 91695.8
14092, 0.00328125, 0.0150732, 0.0623437, -0.00246094, 0.139444, 0.00244638, 9.81734, -0.0305176, 0.0152588, -0.0305176, 20.9545, 91696.9
14102, -0.000820312, 0.0158936, 0.0627539, -0.00246094, 0.14189, 0.00244638, 9.80021, -0.0152588, 0.0305176, 0, 20.9675, 91696.5
14112, 0.00246094, 0.0150732, 0.0627539, -0.00451172, 0.156569, 0.00733915, 9.80755, -0.0305176, 0.0457764, 0.0305176, 20.9696, 91696.2
14122, 0.000820312, 0.0141504, 0.0631641, 0, 0.144337, 0.0122319, 9.79777, -0.0610352, 0.0457764, 0.0610352, 20.973, 91695.9
14132, 0.00287109, 0.0145605, 0.0615234, -0.00205078, 0.156569, 0.00733915, 9.81979, -0.0915527, 0.0152588, 0.0305176, 20.9622, 91696
14142, 0.00287109, 0.0145605, 0.0611133, -0.00287109, 0.159015, 0.00978554, 9.80021, -0.0915527, 0.0305176, 0.0152588, 20.9658, 91696.5
14152, 0.00123047, 0.0163037, 0.0623437, -0.00287109, 0.168801, 0.0195711, 9.81245, -0.106812, 0.0610352, 0.0305176, 20.9736, 91695.9
14162, 0.00205078, 0.0163037, 0.0627539, -0.00410156, 0.17614, 0.00244638, 9.80755, -0.0915527, 0.0457764, -0.0152588, 20.9571, 91695.6
14182, -0.000820312, 0.0158936, 0.0631641, -0.00164062, 0.156569, -0.00244638, 9.81, -0.106812, -0.0152588, 0.0610352, 20.9566, 91696.7
14192, -0.000820312, 0.0137402, 0.0619336, -0.00246094, 0.166354, 0, 9.80266, -0.0305176, -0.0762939, 0.0457764, 20.9702, 91696.2
14202, 0.00205078, 0.0137402, 0.0615234, -0.00246094, 0.156569, 0, 9.79777, -0.0457764, 0, -0.0152588, 20.9545, 91696
14212, 0.00123047, 0.0154834, 0.0627539, -0.00410156, 0.154122, -0.0122319, 9.81, -0.0457764, 0.106812, 0.0457764, 20.9644, 91696.3
14222, 0, 0.0158936, 0.0627539, -0.00328125, 0.159015, 0.00489277, 9.81979, 0.0152588, 0.0457764, 0.0457764, 20.9678, 91696.2
14232, 0, 0.0145605, 0.0631641, -0.00246094, 0.159015, 0.00733915, 9.81734, -0.0457764, 0.0305176, 0.0762939, 20.9698, 91696.7
14242, 0, 0.0141504, 0.0627539, -0.00451172, 0.14189, -0.00489277, 9.81, -0.0762939, 0, 0.0305176, 20.9679, 91696
14262, 0.00164062, 0.0137402, 0.0607031, -0.000820312, 0.146783, -0.00244638, 9.80755, -0.0152588, 0.0762939, 0, 20.9686, 91696.1
14272, 0, 0.0141504, 0.0607031, -0.00369141, 0.136998, 0.0146783, 9.80511, -0.0762939, 0.0762939, 0, 20.9678, 91695.7
14282, -0.000410156, 0.0145605, 0.0619336, -0.00287109, 0.122319, -0.0146783, 9.81979, -0.137329, -0.0152588, 0, 20.9599, 91696.5
14292, -0.000410156, 0.0137402, 0.0635742, -0.00205078, 0.134551, 0, 9.81489, -0.0305176, 0.0152588, 0.0152588, 20.9577, 91695.7
14302, 0.00205078, 0.0137402, 0.0623437, -0.00205078, 0.124766, 0.0146783, 9.80755, -0.0457764, -0.0457764, -0.0305176, 20.9685, 91696
14312, 0.00287109, 0.0129199, 0.0623437, -0.00369141, 0.124766, 0.0146783, 9.81, -0.0610352, 0.106812, 0.0457764, 20.9677, 91696.5
14322, 0.00164062, 0.0158936, 0.0623437, -0.00369141, 0.124766, 0.00489277, 9.80266, 0.0152588, -0.0152588, -0.0457764, 20.9618, 91695.2
14332, 0.00287109, 0.0133301, 0.0619336, -0.00287109, 0.124766, 0.00978554, 9.80021, -0.0457764, -0.0152588, 0.0305176, 20.9638, 91696.3
14352, -0.000410156, 0.0150732, 0.0639844, -0.00205078, 0.129658, 0.00733915, 9.80511, -0.0915527, 0.0915527, 0, 20.9688, 91695.1
14362, 0.00164062, 0.0120996, 0.0635742, -0.00205078, 0.129658, -0.0195711, 9.80755, -0.0152588, -0.0152588, 0.0305176, 20.9696, 91695.9
14372, 0.000820312, 0.0125098, 0.0611133, -0.00205078, 0.127212, 0.00733915, 9.81979, -0.0762939, -0.0152588, -0.0152588, 20.9636, 91695.8
14382, 0.00205078, 0.0141504, 0.0611133, -0.00246094, 0.132105, 0.00978554, 9.81734, -0.0762939, 0.0457764, 0, 20.9684, 91696.5
14392, -0.000410156, 0.0154834, 0.0627539, -0.00502441, 0.144337, -0.00489277, 9.82957, -0.0762939, -0.0457764, 0, 20.9703, 91695.7
14402, -0.000410156, 0.0158936, 0.0623437, -0.00246094, 0.151676, 0.00244638, 9.81245, -0.0457764, 0.106812, -0.0152588, 20.9708, 91695.6
14412, 0, 0.0158936, 0.0635742, -0.00246094, 0.156569, 0.00978554, 9.81, -0.0610352, -0.0152588, 0.0152588, 20.9605, 91695.8
14432, 0.000820312, 0.0154834, 0.0627539, -0.00123047, 0.156569, 0.0146783, 9.80266, -0.0610352, 0.0152588, 0, 20.9822, 91696.2
14442, 0.000410156, 0.0163037, 0.0623437, -0.00164062, 0.139444, 0.00244638, 9.81, -0.106812, 0.0152588, -0.0152588, 20.9642, 91696.2
