timestamp, current1, current2, current3, current4, accel x, accel y, accel z, degrees x, degrees y, degrees z, baro temp, baro pressure
135003133, 0.0225586, 0.0200977, 0.0292236, 0.0301465, -9.51643, -1.52654, 3.44696, 4.57764, 22.4762, 1.12915, 0, 0
135005593, 0.0229687, 0.0205078, 0.0284033, 0.0309668, -9.13725, -1.88372, 3.43717, 4.2572, 22.9187, -0.595093, 0, 0
135005663, 0.0183545, 0.0221484, 0.0292236, 0.0292236, -9.13969, -1.9302, 3.3491, 2.24304, 23.0408, -0.62561, 0, 0
135005673, 0.0241992, 0.0217383, 0.0288135, 0.0301465, -9.11278, -1.90084, 3.29039, 0.656128, 23.3459, -0.442505, 0, 0
135005683, 0.0200977, 0.0221484, 0.0288135, 0.0301465, -9.06385, -1.77118, 3.1485, -1.15967, 23.5291, -0.12207, 0, 0
135005693, 0.0217383, 0.0225586, 0.027583, 0.0305566, -9.09566, -1.68801, 3.1485, -4.01306, 23.7885, 0.366211, 0, 0
135005703, 0.0233789, 0.0213281, 0.0288135, 0.027583, -9.11278, -1.63663, 3.17296, -6.86645, 23.8953, 0.976562, 0, 0
135005723, 0.0237891, 0.0200977, 0.0297363, 0.0297363, -9.25712, -1.71981, 3.1118, -9.552, 24.1394, 2.13623, 0, 0
135005733, 0.0213281, 0.0237891, 0.0297363, 0.0297363, -9.30849, -1.79565, 3.0751, -8.83484, 24.1394, 2.71606, 0, 0
135005743, 0.0200977, 0.0221484, 0.0305566, 0.0301465, -9.12012, -1.71492, 3.0115, -8.13293, 24.231, 3.20435, 0, 0
135005753, 0.019585, 0.0217383, 0.0271729, 0.0301465, -9.18862, -1.64642, 2.96502, -8.81958, 24.4446, 3.76892, 0, 0
135005763, 0.019585, 0.0217383, 0.0279932, 0.0297363, -9.31094, -1.63174, 2.82068, -9.58252, 24.5056, 4.16565, 0, 0
135005773, 0.0213281, 0.0225586, 0.0284033, 0.0288135, -9.26446, -1.61461, 2.63476, -8.88062, 24.5819, 4.5166, 0, 0
135005783, 0.0217383, 0.019585, 0.0284033, 0.0288135, -9.32806, -1.65376, 2.69592, -6.42395, 24.6277, 4.82178, 0, 0
135005793, 0.0205078, 0.0187646, 0.027583, 0.0288135, -9.44304, -1.76384, 2.74974, -3.09753, 24.5972, 5.20325, 0, 0
135005813, 0.0217383, 0.0237891, 0.0292236, 0.0321973, -9.32806, -1.83723, 2.66411, 3.43323, 24.5361, 5.79834, 0, 0
135005823, 0.0213281, 0.0237891, 0.0297363, 0.0292236, -9.18617, -1.78831, 2.59072, 4.80652, 24.6277, 6.02722, 0, 0
135005833, 0.0225586, 0.0205078, 0.0297363, 0.0292236, -9.1348, -1.72715, 2.56136, 4.79126, 24.6429, 6.36291, 0, 0
135005843, 0.0217383, 0.0225586, 0.0297363, 0.031377, -9.17883, -1.72225, 2.57604, 3.89099, 24.5972, 6.54602, 0, 0
135005853, 0.0233789, 0.0233789, 0.0284033, 0.0292236, -9.32806, -1.72715, 2.68124, 2.80762, 24.4293, 6.79016, 0, 0
135005863, 0.0221484, 0.0213281, 0.0288135, 0.0297363, -9.32317, -1.75161, 2.66656, 1.0376, 24.231, 6.97327, 0, 0
135005873, 0.0221484, 0.0213281, 0.0301465, 0.0326074, -9.2669, -1.69779, 2.56626, -1.80054, 23.9868, 7.06482, 0, 0
135005893, 0.0221484, 0.0241992, 0.0297363, 0.0321973, -8.97578, -1.64397, 2.2996, -10.9558, 23.8647, 7.17163, 0, 0
135005903, 0.0205078, 0.020918, 0.0271729, 0.0301465, -8.81188, -1.6562, 2.08677, -15.4266, 23.9258, 7.17163, 0, 0
135005913, 0.0225586, 0.0213281, 0.0297363, 0.0309668, -8.74093, -1.71736, 1.962, -18.1427, 23.8037, 7.30896, 0, 0
135005923, 0.0225586, 0.0213281, 0.0288135, 0.0292236, -8.64063, -1.77118, 1.83723, -18.5089, 23.4833, 7.38525, 0, 0
135005933, 0.0217383, 0.0191748, 0.027583, 0.0317871, -8.48895, -1.73449, 1.7247, -17.8986, 22.934, 7.52258, 0, 0
135005943, 0.0191748, 0.020918, 0.027583, 0.0317871, -8.41312, -1.68311, 1.63908, -16.922, 22.4762, 7.65991, 0, 0
135005953, 0.019585, 0.0217383, 0.0292236, 0.0279932, -8.25165, -1.63908, 1.5559, -15.7471, 21.9879, 7.76672, 0, 0
135005963, 0.0217383, 0.0229687, 0.0271729, 0.0321973, -8.02903, -1.61706, 1.44092, -14.7552, 21.4539, 7.90405, 0, 0
135005983, 0.019585, 0.0213281, 0.0251221, 0.0284033, -9.11523, -1.73204, 1.3504, -10.6812, 20.4773, 7.91931, 0, 0
135005993, 0.0221484, 0.0233789, 0.0251221, 0.0284033, -8.60638, -1.69045, 1.78831, -7.76672, 18.8293, 7.75146, 0, 0
135006003, 0.0200977, 0.0217383, 0.0301465, 0.0297363, -8.3911, -2.16994, 1.00791, -3.41797, 18.3716, 7.8125, 0, 0
135006013, 0.0221484, 0.0241992, 0.0317871, 0.0305566, -8.4914, -1.58036, 1.27457, 0.396728, 18.0664, 7.72095, 0, 0
135006023, 0.0205078, 0.0241992, 0.0297363, 0.0288135, -8.6235, -1.79565, 1.08375, 2.05994, 17.4713, 7.87353, 0, 0
135006033, 0.0205078, 0.0221484, 0.0284033, 0.0288135, -8.33728, -1.15225, 1.45071, 0.930786, 16.6016, 8.0719, 0, 0
135006043, 0.0200977, 0.0217383, 0.0284033, 0.0288135, -8.17092, -1.79565, 1.02503, -0.473022, 16.1896, 8.45337, 0, 0
135006083, 0.0221484, 0.0221484, 0.0292236, 0.0292236, -9.32806, -1.67577, 1.21096, -9.39941, 14.5416, 8.75854, 0, 0
135006093, 0.0221484, 0.0217383, 0.0284033, 0.0301465, -9.47729, -1.7247, 0.941858, -11.9324, 14.1144, 8.8501, 0, 0
135006103, 0.0213281, 0.0225586, 0.0284033, 0.0301465, -9.71948, -1.50697, 1.02993, -14.6027, 13.6719, 9.0332, 0, 0
135006113, 0.0205078, 0.0217383, 0.027583, 0.0297363, -12.0313, -2.65433, 0.173693, -14.6027, 13.7177, 7.8125, 0, 0
135006123, 0.020918, 0.0229687, 0.0297363, 0.0317871, -13.8759, -0.501509, 1.59749, -13.916, 12.6343, 6.86645, 0, 0
135006133, 0.020918, 0.0229687, 0.031377, 0.0297363, -14.6587, -1.64886, 0.455027, -12.6343, 10.437, 6.65283, 0, 0
135006143, 0.019585, 0.0217383, 0.0297363, 0.0284033, -14.0153, -1.82011, 0.281334, -7.04956, 8.7738, 4.68445, 0, 0
135006153, 0.0225586, 0.0225586, 0.0297363, 0.0284033, -8.69445, -0.77795, 0.31803, 0.152588, 6.7749, 4.11987, 0, 0
135006173, 0.0221484, 0.0225586, 0.0271729, 0.0309668, -10.4289, -1.03971, 0.902716, 2.92969, 6.75964, 4.69971, 0, 0
135006183, 0.0221484, 0.0225586, 0.027583, 0.0301465, -9.52133, -1.12044, 0.513741, 0.183105, 6.24084, 4.85229, 0, 0
135006193, 0.0191748, 0.020918, 0.0326074, 0.0309668, -9.8467, -1.04216, 0.347387, -0.350952, 6.22559, 4.54712, 0, 0
135006203, 0.0217383, 0.0229687, 0.0326074, 0.0309668, -9.92253, -0.941858, 0.645845, 0.930786, 5.53894, 4.60815, 0, 0
135006213, 0.020918, 0.0221484, 0.0301465, 0.0297363, -9.66811, -1.20362, 0.410993, 0.411987, 5.09644, 4.30298, 0, 0
135006223, 0.0200977, 0.0217383, 0.0297363, 0.0305566, -9.80511, -1.16203, 0.660524, 0.488281, 4.69971, 4.04358, 0, 0
135006233, 0.0217383, 0.0217383, 0.027583, 0.031377, -9.66566, -1.40178, 0.525973, 0.991821, 4.3335, 3.69263, 0, 0
135006253, 0.0200977, 0.0225586, 0.031377, 0.0292236, -9.72682, -1.46538, 0.604257, 1.96838, 3.40271, 3.17383, 0, 0
135006263, 0.0205078, 0.0233789, 0.0279932, 0.0292236, -9.64365, -1.47272, 0.660524, 2.13623, 2.94495, 3.00598, 0, 0
135006273, 0.0200977, 0.0233789, 0.0301465, 0.0317871, -9.6779, -1.42869, 0.773057, 1.98364, 2.45667, 2.80762, 0, 0
135006283, 0.0229687, 0.0229687, 0.0317871, 0.0297363, -9.71459, -1.5192, 0.760825, 1.7395, 1.92261, 2.76184, 0, 0
135006293, 0.0229687, 0.0229687, 0.0309668, 0.0321973, -9.65833, -1.57547, 0.883145, 1.77002, 1.35803, 2.63977, 0, 0
135006303, 0.0213281, 0.0251221, 0.0305566, 0.0288135, -9.60206, -1.64152, 0.873359, 1.80054, 0.946045, 2.50244, 0, 0
135006313, 0.0213281, 0.0229687, 0.0305566, 0.0288135, -9.68524, -1.61217, 1.03971, 1.84631, 0.411987, 2.36511, 0, 0
135006323, 0.020918, 0.0213281, 0.0292236, 0.0292236, -9.69013, -1.60238, 1.14246, 1.69373, 0.12207, 2.34985, 0, 0
135006343, 0.019585, 0.0233789, 0.0288135, 0.0326074, -9.69013, -1.49719, 1.38221, 2.34985, -0.244141, 2.31934, 0, 0
135006353, 0.0213281, 0.0237891, 0.0279932, 0.0288135, -9.78554, -1.41646, 1.38955, 2.68555, -0.0762939, 2.18201, 0, 0
135006363, 0.020918, 0.0221484, 0.0279932, 0.0288135, -9.81, -1.33573, 1.38465, 3.09753, 0.0305176, 2.24304, 0, 0
135006373, 0.0225586, 0.0241992, 0.0321973, 0.0305566, -9.82712, -1.29169, 1.30882, 3.61633, 0.198364, 2.2583, 0, 0
135006383, 0.0213281, 0.0225586, 0.0284033, 0.0301465, -9.84425, -1.25989, 1.26233, 3.89099, 0.366211, 2.34985, 0, 0
135006393, 0.0213281, 0.0225586, 0.0288135, 0.031377, -9.86871, -1.23053, 1.29414, 4.08936, 0.534058, 2.50244, 0, 0
135006403, 0.020918, 0.0217383, 0.0305566, 0.0297363, -9.79288, -1.24032, 1.29903, 4.31824, 0.656128, 2.56348, 0, 0
135006423, 0.019585, 0.0237891, 0.0279932, 0.0321973, -9.79532, -1.15959, 1.49229, 4.53186, 0.778198, 2.82288, 0, 0
135006433, 0.0200977, 0.0225586, 0.031377, 0.0297363, -9.7782, -1.0813, 1.56324, 4.22668, 0.808716, 2.88391, 0, 0
135006443, 0.0229687, 0.0225586, 0.0284033, 0.0279932, -9.72438, -1.08375, 1.66843, 3.49426, 0.762939, 2.80762, 0, 0
135006453, 0.0229687, 0.0217383, 0.0288135, 0.0292236, -9.73172, -1.14735, 1.73449, 2.47192, 0.701904, 2.85339, 0, 0
135006463, 0.0217383, 0.020918, 0.0288135, 0.0292236, -9.74639, -1.17426, 1.74916, 1.00708, 0.747681, 2.88391, 0, 0
135006473, 0.020918, 0.0217383, 0.0292236, 0.0279932, -9.69257, -1.2868, 1.71736, -0.274658, 0.808716, 2.97546, 0, 0
135006483, 0.0191748, 0.0229687, 0.0309668, 0.0288135, -9.69502, -1.3553, 1.7247, -0.88501, 0.808716, 3.25012, 0, 0
135006493, 0.0205078, 0.0225586, 0.0288135, 0.031377, -9.71704, -1.32105, 1.79565, -0.595093, 0.762939, 3.61633, 0, 0
135006513, 0.020918, 0.0229687, 0.027583, 0.027583, -9.74884, -1.17916, 1.95711, -0.183105, 1.19019, 3.70789, 0, 0
135006523, 0.0221484, 0.0233789, 0.027583, 0.031377, -9.73906, -1.16448, 1.97912, 0.442505, 1.297, 3.58582, 0, 0
135006533, 0.0217383, 0.0259424, 0.0288135, 0.0284033, -9.71704, -1.14491, 1.9987, 1.23596, 1.70898, 3.43323, 0, 0
135006543, 0.0213281, 0.0233789, 0.0292236, 0.0301465, -9.72193, -1.14735, 2.00359, 1.8158, 1.98364, 3.26538, 0, 0
135006553, 0.0213281, 0.0233789, 0.0305566, 0.0267627, -9.68279, -1.14491, 1.97423, 2.10571, 2.2583, 3.34167, 0, 0
135006563, 0.0217383, 0.0259424, 0.0297363, 0.0288135, -9.69991, -1.05195, 1.93264, 2.30408, 2.50244, 3.40271, 0, 0
135006573, 0.020918, 0.0251221, 0.0297363, 0.0288135, -9.7415, -1.0128, 1.88861, 2.34985, 2.79236, 3.479, 0, 0
135006593, 0.0213281, 0.0217383, 0.0305566, 0.0292236, -9.71214, -0.799968, 1.84213, 1.37329, 3.06702, 3.70789, 0, 0
135006603, 0.0213281, 0.0217383, 0.0288135, 0.0301465, -9.75373, -0.692327, 1.80788, -0.137329, 3.14331, 3.69263, 0, 0
135006613, 0.0205078, 0.0225586, 0.0305566, 0.027583, -9.81245, -0.77795, 1.76874, -1.63269, 3.17383, 3.66211, 0, 0
135006623, 0.0205078, 0.0217383, 0.0305566, 0.027583, -9.6779, -0.829324, 1.61461, -2.28882, 3.02124, 3.61633, 0, 0
135006633, 0.0205078, 0.0221484, 0.0305566, 0.0305566, -9.64854, -0.814646, 1.46538, -3.479, 2.99072, 3.63159, 0, 0
135006643, 0.0191748, 0.0225586, 0.0259424, 0.0292236, -9.70236, -0.8122, 1.35285, -4.5166, 2.62451, 3.54004, 0, 0
135006653, 0.0213281, 0.0225586, 0.027583, 0.0292236, -9.7097, -0.709451, 1.19139, -4.91333, 2.30408, 3.38745, 0, 0
135006663, 0.0213281, 0.020918, 0.0284033, 0.0279932, -9.69013, -0.645845, 1.10332, -4.79126, 1.78528, 3.15857, 0, 0
135006683, 0.0200977, 0.0221484, 0.0292236, 0.0288135, -9.66811, -0.511294, 1.24766, -4.5166, 0.778198, 2.21252, 0, 0
135006693, 0.020918, 0.0233789, 0.0309668, 0.0284033, -9.6094, -0.501509, 1.26723, -4.28772, 0.152588, 1.4801, 0, 0
135006703, 0.019585, 0.0233789, 0.0279932, 0.0305566, -9.55558, -0.474599, 1.19873, -3.84521, -0.442505, 0.762939, 0, 0
135006713, 0.019585, 0.0229687, 0.0297363, 0.0297363, -9.58249, -0.545544, 1.05439, -3.41797, -1.02234, 0.0610352, 0, 0
135006723, 0.0183545, 0.020918, 0.027583, 0.0297363, -9.53601, -0.484384, 1.04216, -3.28064, -1.77002, -0.671387, 0, 0
135006733, 0.0213281, 0.0229687, 0.027583, 0.0309668, -9.58493, -0.49417, 0.900269, -3.20435, -2.82288, -1.28174, 0, 0
135006743, 0.0205078, 0.0217383, 0.0292236, 0.0305566, -9.57515, -0.511294, 0.883145, -3.37219, -3.63159, -2.05994, 0, 0
135006763, 0.0213281, 0.0225586, 0.0297363, 0.0297363, -9.62163, -0.570008, 0.795075, -3.34167, -5.35583, -3.54004, 0, 0
135006773, 0.0213281, 0.0225586, 0.0297363, 0.0284033, -9.58738, -0.697219, 0.770611, -2.60925, -6.14929, -4.3335, 0, 0
135006783, 0.020918, 0.0221484, 0.0297363, 0.0284033, -9.56536, -0.821985, 0.702112, -1.34277, -7.01904, -5.05066, 0, 0
135006793, 0.0205078, 0.0229687, 0.0301465, 0.0317871, -9.56781, -0.924733, 0.60915, 0.350952, -7.76672, -5.67627, 0, 0
135006803, 0.0200977, 0.0233789, 0.0292236, 0.0288135, -9.58983, -0.92718, 0.481938, 1.69373, -8.43811, -6.37817, 0, 0
135006813, 0.0200977, 0.0233789, 0.0292236, 0.0297363, -9.65099, -0.856234, 0.48683, 2.16675, -9.15527, -7.08008, 0, 0
135006823, 0.020918, 0.0229687, 0.0309668, 0.0297363, -9.68768, -0.790182, 0.464813, 1.75476, -9.94873, -7.50732, 0, 0
135006833, 0.0205078, 0.0237891, 0.0309668, 0.0297363, -9.55068, -0.66297, 0.638506, 1.14441, -10.788, -7.75146, 0, 0
135006873, 0.0205078, 0.0213281, 0.0297363, 0.0292236, -9.78309, -0.506402, 0.467259, -2.28882, -13.5956, -8.30078, 0, 0
135006883, 0.0221484, 0.0251221, 0.0297363, 0.0292236, -9.85159, -0.506402, 0.403653, -2.33459, -14.2975, -8.17871, 0, 0
135006893, 0.0221484, 0.0213281, 0.027583, 0.0279932, -9.92987, -0.565115, 0.489277, -2.86865, -14.7705, -7.94983, 0, 0
135006903, 0.0217383, 0.0217383, 0.0292236, 0.0326074, -10.0351, -0.611596, 0.594471, -4.88281, -15.1215, -7.78198, 0, 0
135006913, 0.0200977, 0.0217383, 0.0284033, 0.0297363, -10.1843, -0.702112, 0.535758, -7.43103, -15.1978, -7.59888, 0, 0
135006923, 0.0200977, 0.0221484, 0.0279932, 0.0292236, -10.1574, -0.785289, 0.697219, -10.0861, -14.8315, -7.43103, 0, 0
135006933, 0.0213281, 0.0213281, 0.0301465, 0.0292236, -10.1182, -0.91984, 0.902716, -12.6038, -14.267, -7.30896, 0, 0
135006943, 0.0187646, 0.0237891, 0.0301465, 0.0305566, -10.336, -0.616489, 1.56569, -14.679, -13.977, -6.65283, 0, 0
135006963, 0.020918, 0.0225586, 0.0292236, 0.0301465, -10.1598, -0.359618, 2.0623, -12.5275, -12.3749, -4.65393, 0, 0
135006973, 0.020918, 0.0225586, 0.0284033, 0.0288135, -10.6149, -0.755933, 1.72959, -7.50732, -10.2997, -4.15039, 0, 0
135006983, 0.0217383, 0.0205078, 0.0297363, 0.027583, -10.6075, -0.990786, 1.47028, -0.0610352, -8.66699, -3.7384, 0, 0
135006993, 0.0200977, 0.0213281, 0.0297363, 0.027583, -10.3091, -1.20851, 1.07396, 7.36999, -7.20215, -3.64685, 0, 0
135007003, 0.020918, 0.0217383, 0.0309668, 0.0305566, -10.1965, -0.716791, 1.36264, 10.7727, -5.92041, -3.57056, 0, 0
135007013, 0.019585, 0.0217383, 0.0292236, 0.0309668, -10.0473, -0.618935, 1.62195, 9.15527, -4.71497, -3.78418, 0, 0
135007023, 0.0213281, 0.0217383, 0.0288135, 0.0279932, -9.96902, -0.658077, 2.07209, 5.63049, -3.63159, -3.98254, 0, 0
135007043, 0.0213281, 0.0229687, 0.0297363, 0.0279932, -9.66811, -1.49719, 2.67634, 3.5553, -2.50244, -3.49426, 0, 0
135007053, 0.0213281, 0.0229687, 0.0321973, 0.0297363, -9.49442, -1.66354, 2.62742, 4.86755, -2.01416, -2.7771, 0, 0
135007063, 0.020918, 0.020918, 0.0292236, 0.0284033, -9.61918, -1.67577, 2.64454, 3.52478, -1.40381, -2.0752, 0, 0
135007073, 0.0217383, 0.020918, 0.0321973, 0.031377, -9.9152, -1.53388, 2.86716, 0.396728, -0.747681, -1.8158, 0, 0
135007083, 0.0217383, 0.0237891, 0.0284033, 0.0297363, -9.48708, -1.52165, 2.79377, -1.28174, -0.228882, -1.23596, 0, 0
135007093, 0.0200977, 0.0213281, 0.0284033, 0.0297363, -9.46751, -1.46049, 2.806, -0.183105, -0.0457764, -0.595093, 0, 0
135007103, 0.020918, 0.0213281, 0.0297363, 0.0292236, -9.76597, -1.4556, 2.9797, 0.823975, 0.137329, -0.0915527, 0, 0
135007113, 0.0213281, 0.0251221, 0.0297363, 0.0326074, -9.91275, -1.84457, 2.96502, 1.40381, 0.534058, -0.167847, 0, 0
135007133, 0.0200977, 0.0213281, 0.0297363, 0.0279932, -9.46261, -1.91552, 3.20966, 0.213623, 2.2583, 0.808716, 0, 0
135007143, 0.0205078, 0.0225586, 0.0297363, 0.0279932, -9.74395, -1.80788, 3.32219, -1.7395, 3.90625, 1.19019, 0, 0
135007153, 0.0183545, 0.0225586, 0.0297363, 0.0284033, -9.80021, -1.82256, 3.19742, -1.15967, 5.09644, 1.5564, 0, 0
135007163, 0.019585, 0.0225586, 0.0292236, 0.0279932, -9.8467, -2.03539, 2.98214, 2.05994, 6.31714, 1.86157, 0, 0
135007173, 0.0205078, 0.0217383, 0.027583, 0.0309668, -9.73416, -2.10878, 3.09712, 4.95911, 7.50732, 2.24304, 0, 0
135007183, 0.0205078, 0.0217383, 0.0292236, 0.0292236, -9.68279, -2.16994, 3.00661, 6.24084, 8.40759, 2.54822, 0, 0
135007193, 0.0213281, 0.0225586, 0.027583, 0.0301465, -9.64854, -2.28737, 3.06287, 6.60706, 9.49097, 3.12805, 0, 0
135007213, 0.0183545, 0.0221484, 0.0279932, 0.0297363, -9.65099, -2.35831, 3.08489, 5.43213, 11.3678, 4.60815, 0, 0
135007223, 0.0200977, 0.020918, 0.0288135, 0.0288135, -9.80266, -2.32896, 2.9063, 4.36401, 12.3901, 5.50842, 0, 0
135007233, 0.0225586, 0.020918, 0.0263525, 0.0292236, -9.87605, -2.46106, 2.78643, 3.70789, 13.4888, 6.42395, 0, 0
135007243, 0.0225586, 0.0205078, 0.0292236, 0.0279932, -9.7782, -2.669, 2.65188, 3.86047, 14.679, 7.21741, 0, 0
135007253, 0.0179443, 0.0225586, 0.0292236, 0.0279932, -9.58983, -2.72772, 2.78154, 4.63867, 15.9454, 7.88879, 0, 0
135007263, 0.020918, 0.0247119, 0.0305566, 0.027583, -9.50665, -2.76197, 2.7375, 5.34058, 17.0593, 8.72803, 0, 0
135007273, 0.0205078, 0.0241992, 0.0305566, 0.0279932, -9.52377, -2.7057, 2.77175, 6.68335, 17.8986, 9.44519, 0, 0
135007283, 0.0191748, 0.0241992, 0.031377, 0.0292236, -9.5042, -2.69347, 2.72283, 8.0719, 18.6157, 10.1471, 0, 0
135007303, 0.0183545, 0.0225586, 0.0297363, 0.0288135, -9.40145, -2.69347, 2.71793, 10.3912, 19.989, 11.4441, 0, 0
135007313, 0.020918, 0.0229687, 0.0297363, 0.0284033, -9.39167, -2.64699, 2.71549, 10.5438, 20.3705, 12.2223, 0, 0
135007323, 0.0205078, 0.0213281, 0.0292236, 0.0347607, -9.39167, -2.57604, 2.66656, 10.3455, 20.9045, 13.0463, 0, 0
135007333, 0.0200977, 0.0213281, 0.0284033, 0.0297363, -9.44304, -2.54913, 2.64943, 9.49097, 21.286, 13.916, 0, 0
135007343, 0.0200977, 0.0225586, 0.0292236, 0.0305566, -9.46506, -2.44638, 2.63476, 8.02612, 21.7438, 14.6027, 0, 0
135007353, 0.0200977, 0.0241992, 0.0301465, 0.0305566, -9.40145, -2.34608, 2.68124, 6.62231, 22.1558, 15.2435, 0, 0
135007363, 0.0205078, 0.0200977, 0.0301465, 0.0288135, -9.41124, -2.21398, 2.69592, 5.56946, 22.6746, 15.8691, 0, 0
135007383, 0.019585, 0.0217383, 0.027583, 0.027583, -9.44549, -1.77363, 2.65433, 4.5166, 23.6511, 17.0898, 0, 0
135007393, 0.019585, 0.0217383, 0.027583, 0.0288135, -9.48463, -1.5877, 2.44883, 3.41797, 24.1394, 17.3035, 0, 0
135007403, 0.020918, 0.0229687, 0.0305566, 0.0301465, -9.5042, -1.47028, 2.06964, 1.69373, 24.5514, 17.4866, 0, 0
135007413, 0.0217383, 0.0225586, 0.0305566, 0.0301465, -9.65343, -1.37487, 1.67088, 0.12207, 24.6887, 17.7155, 0, 0
135007423, 0.0191748, 0.0229687, 0.0305566, 0.0309668, -9.65833, -1.28435, 1.38465, -0.640869, 24.7192, 17.9443, 0, 0
135007433, 0.0205078, 0.0237891, 0.0309668, 0.0317871, -9.61918, -1.14491, 1.27946, -0.320435, 24.704, 18.1274, 0, 0
135007443, 0.0217383, 0.0237891, 0.0326074, 0.0305566, -9.58493, -0.985893, 1.30882, 0.473022, 24.6582, 18.28, 0, 0
135007453, 0.0217383, 0.0229687, 0.0297363, 0.0288135, -9.55558, -0.936965, 1.15469, 0.793457, 24.765, 18.2037, 0, 0
135007473, 0.0213281, 0.019585, 0.0301465, 0.0301465, -9.57515, -0.648292, 0.594471, 7.1106, 25.0092, 17.5323, 0, 0
135007483, 0.0221484, 0.0225586, 0.031377, 0.0288135, -9.51154, -0.917394, 0.428117, 9.12476, 24.8413, 16.9373, 0, 0
135007493, 0.020918, 0.0225586, 0.0284033, 0.0284033, -9.68524, -0.861127, 0.528419, 11.9324, 24.3683, 16.5558, 0, 0
135007503, 0.020918, 0.0229687, 0.0305566, 0.0305566, -9.44794, -1.12289, 0.511294, 13.9923, 24.1394, 16.2201, 0, 0
135007513, 0.0217383, 0.0233789, 0.0305566, 0.0305566, -9.44794, -1.14735, 0.653185, 13.1989, 23.8495, 16.4337, 0, 0
135007523, 0.0229687, 0.020918, 0.0305566, 0.0301465, -9.6779, -1.17671, 0.709451, 10.3455, 23.5138, 16.4337, 0, 0
135007533, 0.0213281, 0.0241992, 0.0288135, 0.0279932, -9.73416, -1.30392, 0.43301, 7.53784, 23.1476, 16.6626, 0, 0
135007553, 0.019585, 0.0217383, 0.0305566, 0.0301465, -9.6412, -1.15225, 0.445242, 12.6343, 21.9727, 17.0441, 0, 0
135007563, 0.020918, 0.0225586, 0.027583, 0.0301465, -9.68034, -0.89293, 0.418332, 14.8621, 21.9727, 17.3187, 0, 0
135007573, 0.0205078, 0.0255322, 0.027583, 0.0279932, -9.67056, -0.985893, 0.166354, 18.8751, 21.8353, 17.4713, 0, 0
135007583, 0.019585, 0.0241992, 0.0321973, 0.0284033, -9.46506, -0.824431, 0.163908, 24.6582, 21.8353, 17.6239, 0, 0
135007593, 0.020918, 0.0241992, 0.0305566, 0.0292236, -9.65833, -0.682541, 0.320476, 29.1748, 21.9116, 17.868, 0, 0
135007603, 0.020918, 0.0213281, 0.0297363, 0.0288135, -8.92196, -0.667863, 0.0195711, 33.9966, 21.8658, 18.1732, 0, 0
135007613, 0.0233789, 0.0229687, 0.027583, 0.0284033, -7.77216, -0.677648, 0.215282, 41.9006, 21.8811, 18.2648, 0, 0
135007623, 0.0191748, 0.0229687, 0.027583, 0.0284033, -7.48349, -0.675202, 0.0269102, 47.2565, 21.1334, 18.158, 0, 0
135007663, 0.0175342, 0.0221484, 0.0326074, 0.0301465, -8.91218, -0.335155, -0.276441, 38.4369, 20.6909, 19.6686, 0, 0
135007673, 0.0191748, 0.0241992, 0.0326074, 0.0301465, -9.08098, -0.0562668, -0.496616, 35.9039, 20.4773, 20.0043, 0, 0
135007683, 0.0225586, 0.0179443, 0.0334277, 0.0309668, -9.49686, -0.0587132, -0.215282, 34.0118, 20.4315, 20.0653, 0, 0
135007693, 0.0213281, 0.0221484, 0.0317871, 0.0297363, -9.79288, -0.159015, -0.555329, 32.3181, 20.34, 20.2332, 0, 0
135007703, 0.019585, 0.0221484, 0.0305566, 0.0288135, -9.74884, -0.0758379, -0.555329, 31.1432, 20.0043, 20.34, 0, 0
135007713, 0.019585, 0.0221484, 0.0301465, 0.0279932, -9.59961, -0.210389, -0.846449, 30.6702, 19.7754, 20.3247, 0, 0
135007723, 0.0217383, 0.0200977, 0.0301465, 0.0279932, -9.86627, 0.132105, -0.831771, 29.1595, 19.2108, 20.3705, 0, 0
135007743, 0.0233789, 0.0233789, 0.0317871, 0.0309668, -9.73416, 0.420778, -1.0813, 20.874, 18.2495, 19.7601, 0, 0
135007753, 0.019585, 0.0233789, 0.0301465, 0.0284033, -10.4558, 0.503955, -1.04216, 18.4479, 17.807, 19.516, 0, 0
135007763, 0.019585, 0.0241992, 0.0305566, 0.0305566, -11.0772, 0.604257, -1.13757, 16.922, 17.2882, 19.1193, 0, 0
135007773, 0.0217383, 0.0233789, 0.0288135, 0.0305566, -11.4589, 0.782843, -1.13512, 14.9078, 16.7542, 18.5547, 0, 0
135007783, 0.0233789, 0.0233789, 0.0288135, 0.0297363, -11.2216, 0.755933, -1.23542, 10.5591, 16.3727, 17.8375, 0, 0
135007793, 0.0213281, 0.0229687, 0.0301465, 0.0271729, -11.4173, 0.885591, -1.3553, 10.5591, 15.6555, 17.3798, 0, 0
135007803, 0.0237891, 0.0229687, 0.0292236, 0.0297363, -11.7524, 1.25255, -1.47028, 4.44031, 14.5721, 16.4032, 0, 0
135007813, 0.0225586, 0.0233789, 0.0309668, 0.0292236, -11.7549, 1.92286, -2.01093, 1.38855, 12.5122, 14.0533, 0, 0
135007833, 0.0241992, 0.0229687, 0.0321973, 0.0301465, -10.2773, 2.53935, -2.6054, 0.823975, 6.83594, 8.42285, 0, 0
135007843, 0.0255322, 0.0233789, 0.0330176, 0.0317871, -10.2088, 2.54669, -2.80845, 0.961304, 3.9978, 5.70679, 0, 0
135007853, 0.020918, 0.0229687, 0.0317871, 0.0301465, -10.106, 2.71793, -2.96746, 0.961304, 1.31226, 3.23486, 0, 0
135007863, 0.0229687, 0.0229687, 0.0305566, 0.0305566, -10.1109, 2.62497, -3.06777, 2.44141, -0.915527, 1.54114, 0, 0
135007873, 0.0229687, 0.0229687, 0.0317871, 0.0309668, -9.96657, 2.05252, -2.15526, 6.39343, -1.25122, 1.54114, 0, 0
135007883, 0.0221484, 0.0241992, 0.0317871, 0.0309668, -9.9152, 1.63908, -2.18951, 10.4065, -0.488281, 2.30408, 0, 0
135007893, 0.020918, 0.0229687, 0.0305566, 0.0309668, -9.99593, 1.53144, -1.24032, 12.2528, -0.808716, 2.33459, 0, 0
135007913, 0.0221484, 0.0241992, 0.0297363, 0.0317871, -9.93477, 1.73449, -1.09109, 11.4593, -1.52588, 1.02234, 0, 0
135007923, 0.0221484, 0.0247119, 0.0321973, 0.0317871, -9.98125, 1.70268, -0.946751, 10.8185, -1.34277, 0.869751, 0, 0
135007933, 0.0225586, 0.0233789, 0.0321973, 0.0317871, -9.92498, 1.49719, -1.0177, 9.26208, -1.38855, 0.823975, 0, 0
135007943, 0.0213281, 0.0229687, 0.0321973, 0.0297363, -9.94211, 1.57547, -0.885591, 6.62231, -1.8158, 0.457764, 0, 0
135007953, 0.020918, 0.0233789, 0.0334277, 0.0284033, -9.93232, 1.56079, -0.890484, 4.13513, -1.7395, 0.198364, 0, 0
135007963, 0.0217383, 0.0233789, 0.031377, 0.0301465, -9.96902, 1.48985, -0.748594, 2.02942, -1.57166, -0.0152588, 0, 0
135007973, 0.0217383, 0.0233789, 0.0330176, 0.0305566, -9.95189, 1.38955, -0.694773, 0.610352, -1.54114, -0.198364, 0, 0
135007983, 0.0221484, 0.0217383, 0.0326074, 0.0305566, -9.9152, 1.39933, -0.709451, -0.0915527, -1.64795, -0.274658, 0, 0
135008003, 0.0200977, 0.0221484, 0.0334277, 0.0301465, -9.95923, 1.35774, -0.790182, -0.335693, -1.95312, -0.88501, 0, 0
135008013, 0.0213281, 0.0221484, 0.0330176, 0.0305566, -9.95923, 1.30392, -0.687434, -0.50354, -2.13623, -1.0376, 0, 0
135008023, 0.0229687, 0.0237891, 0.031377, 0.0309668, -9.94211, 1.25255, -0.5749, -0.62561, -2.42615, -1.19019, 0, 0
135008033, 0.0229687, 0.0225586, 0.0305566, 0.0305566, -9.96657, 1.12778, -0.332708, -0.671387, -2.5177, -1.37329, 0, 0
135008043, 0.0225586, 0.0217383, 0.0305566, 0.0305566, -9.95923, 1.09109, -0.144337, -0.244141, -2.56348, -1.49536, 0, 0
135008053, 0.0213281, 0.0225586, 0.0326074, 0.0292236, -9.93966, 1.03727, -0.0269102, 0.610352, -2.48718, -1.69373, 0, 0
135008063, 0.0217383, 0.0213281, 0.0317871, 0.0292236, -9.96412, 0.985893, -0.0146783, 1.20544, -2.31934, -1.84631, 0, 0
135008083, 0.0225586, 0.0225586, 0.0321973, 0.0297363, -9.94944, 0.902716, -0.374297, 0.305176, -1.7395, -1.70898, 0, 0
135008093, 0.0217383, 0.0233789, 0.0321973, 0.0297363, -9.93232, 1.13757, -0.464813, -0.610352, -2.01416, -1.92261, 0, 0
135008103, 0.0225586, 0.0241992, 0.0317871, 0.0292236, -9.92253, 1.21341, -0.533312, -0.183105, -2.04468, -2.44141, 0, 0
135008113, 0.0205078, 0.0237891, 0.0297363, 0.0297363, -9.93232, 1.07886, -0.530865, 0.778198, -2.0752, -2.60925, 0, 0
135008123, 0.0205078, 0.0237891, 0.0309668, 0.0305566, -9.92987, 0.824431, -0.437903, 1.61743, -2.16675, -2.54822, 0, 0
135008133, 0.0205078, 0.0241992, 0.0301465, 0.0309668, -9.98859, 0.645845, -0.330262, 1.58691, -2.42615, -2.41089, 0, 0
135008143, 0.0191748, 0.0225586, 0.0301465, 0.0309668, -9.947, 0.457474, -0.212835, 1.64795, -2.39563, -2.5177, 0, 0
135008153, 0.0217383, 0.0217383, 0.0321973, 0.0288135, -9.9103, 0.303352, -0.0269102, 1.92261, -2.33459, -2.57874, 0, 0
135008173, 0.0213281, 0.0225586, 0.0317871, 0.0317871, -9.92498, 0.308244, 0.0342494, 1.61743, -3.00598, -2.76184, 0, 0
135008183, 0.0213281, 0.0221484, 0.0309668, 0.0297363, -9.87361, 0.308244, -0.0758379, 1.7395, -3.5553, -3.06702, 0, 0
135008193, 0.0213281, 0.0233789, 0.031377, 0.0297363, -9.85648, 0.374297, -0.20305, 1.83105, -3.98254, -3.44849, 0, 0
135008203, 0.0200977, 0.0255322, 0.031377, 0.0288135, -9.88584, 0.374297, -0.293566, 1.78528, -4.5166, -3.76892, 0, 0
135008213, 0.0213281, 0.0213281, 0.0305566, 0.0292236, -9.89318, 0.396314, -0.428117, 1.25122, -5.09644, -4.18091, 0, 0
135008223, 0.0217383, 0.0213281, 0.0288135, 0.0305566, -9.83202, 0.430564, -0.530865, 0.244141, -5.7373, -4.54712, 0, 0
135008233, 0.0200977, 0.0229687, 0.0321973, 0.0309668, -9.79777, 0.506402, -0.606703, -0.839233, -6.57654, -4.85229, 0, 0
135008253, 0.0229687, 0.0229687, 0.0338379, 0.0297363, -9.54334, 0.296012, -0.631167, 0.762939, -8.31604, -5.69153, 0, 0
135008263, 0.0213281, 0.0217383, 0.0334277, 0.0305566, -8.53543, 0.0831771, -0.52108, 4.94385, -9.18579, -6.14929, 0, 0
135008273, 0.0233789, 0.0217383, 0.034248, 0.031377, -8.09509, 0.144337, -0.288673, 9.49097, -9.67407, -6.30188, 0, 0
135008283, 0.0229687, 0.0237891, 0.0292236, 0.031377, -8.37642, 0.0733915, -0.168801, 13.443, -10.2234, -6.54602, 0, 0
135008293, 0.0229687, 0.0233789, 0.0305566, 0.0292236, -8.71402, 0.127212, -0.0684988, 16.2354, -10.5438, -6.72913, 0, 0
135008303, 0.0217383, 0.0225586, 0.0305566, 0.0292236, -8.99046, 0.166354, -0.127212, 18.9667, -10.8185, -6.89697, 0, 0
135008313, 0.0200977, 0.0247119, 0.0309668, 0.0305566, -9.08587, 0.188372, -0.110087, 20.7672, -10.788, -7.09534, 0, 0
135008323, 0.0205078, 0.0247119, 0.0321973, 0.0321973, -9.31339, 0.22996, -0.134551, 21.8506, -10.7727, -7.26318, 0, 0
135008343, 0.0225586, 0.0225586, 0.031377, 0.0305566, -9.41613, 0.408546, -0.119873, 24.4598, -10.3149, -7.69043, 0, 0
135008353, 0.0225586, 0.0225586, 0.031377, 0.0305566, -9.77086, 0.477045, -0.0709451, 24.4751, -10.0555, -7.98035, 0, 0
135008363, 0.0229687, 0.0237891, 0.034248, 0.0326074, -10.2895, 0.48683, -0.031803, 22.9492, -9.56726, -8.22449, 0, 0
135008373, 0.0241992, 0.0233789, 0.0297363, 0.0317871, -11.2313, 0.680095, 0.222621, 18.3563, -9.17053, -8.27026, 0, 0
135008383, 0.0217383, 0.0233789, 0.0321973, 0.0317871, -12.8142, 0.628721, 0.271549, 10.4675, -8.20923, -8.01086, 0, 0
135008393, 0.0217383, 0.0237891, 0.0305566, 0.0321973, -13.734, 0.437903, 0.533312, 1.84631, -7.36999, -7.61414, 0, 0
135008403, 0.0217383, 0.0229687, 0.0317871, 0.0321973, -12.9854, -0.129658, 0.364511, -0.854492, -6.3324, -6.75964, 0, 0
135008413, 0.0221484, 0.0247119, 0.0317871, 0.0326074, -9.22042, -0.210389, 0.719237, -0.259399, -4.40979, -5.34058, 0, 0
135008453, 0.0213281, 0.0225586, 0.0334277, 0.0301465, -9.94211, -0.0660524, 0.506402, -0.396728, -1.17493, -0.900268, 0, 0
135008463, 0.0225586, 0.0237891, 0.0334277, 0.0288135, -9.96902, 0.0611596, 0.447688, -0.366211, -1.09863, -0.930786, 0, 0
135008473, 0.020918, 0.0241992, 0.0330176, 0.0297363, -9.97391, 0.0489277, 0.281334, 0.442505, -1.37329, -1.44958, 0, 0
135008483, 0.0205078, 0.0241992, 0.0317871, 0.0317871, -9.947, -0.0171247, 0.362065, 1.0376, -1.26648, -1.54114, 0, 0
135008493, 0.020918, 0.0217383, 0.0309668, 0.0317871, -9.947, -0.102748, 0.393868, 1.28174, -1.11389, -1.34277, 0, 0
135008503, 0.020918, 0.0233789, 0.0317871, 0.0330176, -9.96412, -0.0978554, 0.435456, 0.961304, -1.06812, -1.15967, 0, 0
135008513, 0.0221484, 0.0200977, 0.0317871, 0.0330176, -9.95678, -0.105195, 0.462367, 0.50354, -1.15967, -1.14441, 0, 0
135008533, 0.020918, 0.0233789, 0.0297363, 0.0326074, -9.95923, -0.151676, 0.45992, 0.0762939, -0.778198, -0.930786, 0, 0
135008543, 0.020918, 0.0233789, 0.0317871, 0.031377, -9.947, -0.139444, 0.440349, -0.198364, -0.686645, -0.808716, 0, 0
135008553, 0.020918, 0.0217383, 0.0326074, 0.031377, -9.95923, -0.110087, 0.435456, -0.549316, -0.595093, -0.686645, 0, 0
135008563, 0.0217383, 0.0247119, 0.0326074, 0.031377, -9.94944, -0.105195, 0.425671, -0.747681, -0.411987, -0.671387, 0, 0
135008573, 0.0225586, 0.0213281, 0.0330176, 0.0317871, -9.95923, -0.117426, 0.452581, -0.579834, -0.38147, -0.671387, 0, 0
135008583, 0.0205078, 0.0213281, 0.0309668, 0.0292236, -9.94944, -0.14189, 0.462367, -0.228882, -0.259399, -0.640869, 0, 0
135008593, 0.0187646, 0.0213281, 0.0317871, 0.0292236, -9.92743, -0.159015, 0.474599, 0.0610352, -0.12207, -0.564575, 0, 0
135008603, 0.0213281, 0.0225586, 0.0317871, 0.0326074, -9.95678, -0.168801, 0.479491, 0.12207, -0.0152588, -0.579834, 0, 0
135008623, 0.0233789, 0.0247119, 0.0330176, 0.0292236, -9.95189, -0.0758379, 0.525973, 0.228882, 0.228882, -0.366211, 0, 0
135008633, 0.0200977, 0.0221484, 0.031377, 0.0297363, -9.90541, -0.00733915, 0.572454, 0.0610352, 0.488281, -0.167847, 0, 0
135008643, 0.0200977, 0.0221484, 0.0305566, 0.0301465, -9.71948, 0.0195711, 0.570008, 0.0610352, 0.717163, 0.0152588, 0, 0
135008653, 0.0183545, 0.0247119, 0.034248, 0.0297363, -9.22531, 0.0122319, 0.538204, 0.686645, 1.06812, 0.259399, 0, 0
135008663, 0.0183545, 0.0241992, 0.0317871, 0.0297363, -8.78007, -0.0122319, 0.501509, 1.8158, 1.41907, 0.518799, 0, 0
135008673, 0.0200977, 0.0225586, 0.0317871, 0.031377, -8.49629, -0.0660524, 0.474599, 3.76892, 1.86157, 0.793457, 0, 0
135008683, 0.020918, 0.0217383, 0.0334277, 0.0309668, -8.30547, -0.0660524, 0.477045, 5.67627, 2.36511, 0.991821, 0, 0
135008703, 0.0205078, 0.0225586, 0.0334277, 0.0301465, -8.0486, -0.0342494, 0.489277, 10.498, 3.37219, 1.25122, 0, 0
135008713, 0.0205078, 0.0217383, 0.031377, 0.0271729, -7.8847, -0.063606, 0.413439, 13.6261, 3.8147, 1.44958, 0, 0
135008723, 0.0205078, 0.0217383, 0.031377, 0.0271729, -7.85779, -0.0171247, 0.447688, 17.4408, 4.15039, 1.4801, 0, 0
135008733, 0.019585, 0.0233789, 0.0334277, 0.0292236, -8.0168, -0.0342494, 0.452581, 21.5912, 4.53186, 1.35803, 0, 0
135008743, 0.020918, 0.0255322, 0.031377, 0.0297363, -8.26389, 0.0513741, 0.474599, 25.6042, 4.83704, 1.15967, 0, 0
135008753, 0.0225586, 0.0255322, 0.0326074, 0.031377, -8.70668, 0.183479, 0.447688, 29.9683, 4.95911, 0.839233, 0, 0
135008763, 0.0225586, 0.0247119, 0.0317871, 0.031377, -9.40879, 0.396314, 0.489277, 33.7067, 5.17273, 0.38147, 0, 0
135008773, 0.020918, 0.0247119, 0.0317871, 0.031377, -10.1378, 0.567561, 0.464813, 35.5225, 5.43213, -0.274658, 0, 0
135008793, 0.0217383, 0.0229687, 0.0297363, 0.0334277, -11.5298, 0.616489, 0.455027, 32.5775, 5.76782, -1.46484, 0, 0
135008803, 0.0213281, 0.0229687, 0.0321973, 0.0317871, -11.6815, 0.584686, 0.386529, 29.5868, 6.073, -2.12097, 0, 0
135008813, 0.0213281, 0.0225586, 0.0301465, 0.0309668, -11.613, 0.616489, 0.359618, 26.1078, 6.36291, -2.79236, 0, 0
135008823, 0.0213281, 0.0241992, 0.0301465, 0.0309668, -10.9941, 0.472152, 0.266656, 23.4833, 6.50024, -3.08228, 0, 0
135008833, 0.0221484, 0.0241992, 0.0330176, 0.031377, -11.2118, 0.303352, 0.0342494, 21.1792, 6.5155, -3.17383, 0, 0
135008843, 0.019585, 0.0233789, 0.0330176, 0.031377, -12.7848, 0.63606, 0.0709451, 15.8997, 6.17981, -2.70081, 0, 0
135008853, 0.019585, 0.0233789, 0.031377, 0.0309668, -14.8838, 0.552883, -0.220175, 7.61414, 5.20325, -1.72424, 0, 0
135008873, 0.0229687, 0.0229687, 0.0351709, 0.0317871, -8.0535, 0.0929626, -1.03482, -0.778198, 1.92261, 0.137329, 0, 0
135008883, 0.0221484, 0.0200977, 0.0351709, 0.034248, -10.5831, 0.645845, -0.327815, -0.152588, 0.289917, 0.289917, 0, 0
135008893, 0.0200977, 0.0200977, 0.0321973, 0.0284033, -9.59961, 0.031803, -1.08619, -0.350952, 0.793457, 0.0457764, 0, 0
135008903, 0.0229687, 0.0200977, 0.0326074, 0.031377, -10.0669, 0.826878, 0.14189, -0.534058, 1.31226, -0.274658, 0, 0
135008913, 0.0205078, 0.0241992, 0.0326074, 0.031377, -9.96657, 0.4061, -0.472152, -0.564575, 0.534058, 0.12207, 0, 0
135008923, 0.0205078, 0.0233789, 0.0326074, 0.0326074, -9.81245, 0.518633, -0.491723, -0.442505, 0.854492, -0.411987, 0, 0
135008933, 0.0191748, 0.0247119, 0.0326074, 0.0326074, -9.15682, 0.721683, -0.227514, 0.50354, 0.442505, -0.442505, 0, 0
135008943, 0.0213281, 0.0241992, 0.0305566, 0.031377, -8.4229, 0.283781, -0.692327, 2.19727, 0.50354, -1.06812, 0, 0
135008963, 0.0200977, 0.0237891, 0.0309668, 0.031377, -7.72079, 0.166354, -0.503955, 8.04138, 0.793457, -2.2583, 0, 0
135008973, 0.0200977, 0.0233789, 0.0326074, 0.0309668, -7.66697, 0.127212, -0.415885, 11.2305, 1.11389, -2.76184, 0, 0
135008983, 0.0225586, 0.0225586, 0.0326074, 0.0309668, -7.79907, 0.0244638, -0.435456, 14.4958, 1.11389, -2.92969, 0, 0
135008993, 0.0217383, 0.0217383, 0.0330176, 0.0309668, -8.3226, -0.136998, -0.457474, 17.1967, 1.17493, -3.02124, 0, 0
135009003, 0.0217383, 0.020918, 0.0321973, 0.0309668, -8.84368, -0.151676, -0.381636, 19.1345, 1.02234, -2.94495, 0, 0
135009013, 0.0237891, 0.020918, 0.034248, 0.0326074, -9.36965, -0.222621, -0.496616, 20.2332, 0.747681, -2.76184, 0, 0
135009023, 0.0213281, 0.0237891, 0.0330176, 0.0321973, -9.79532, -0.225067, -0.535758, 20.9045, 0.427246, -2.5177, 0, 0
135009043, 0.0213281, 0.0225586, 0.0317871, 0.0330176, -10.1916, -0.281334, -0.658077, 21.3623, -0.411987, -1.87683, 0, 0
135009053, 0.0237891, 0.0229687, 0.0326074, 0.0338379, -10.3996, -0.349833, -0.682541, 21.759, -0.686645, -1.60217, 0, 0
135009063, 0.0229687, 0.0229687, 0.0317871, 0.0317871, -10.4363, -0.366958, -0.684988, 21.637, -0.961304, -1.297, 0, 0
135009073, 0.020918, 0.0259424, 0.031377, 0.0317871, -10.4289, -0.403653, -0.623828, 21.5607, -1.06812, -0.930786, 0, 0
135009083, 0.020918, 0.0241992, 0.0334277, 0.0317871, -10.588, -0.4061, -0.562668, 20.9808, -1.20544, -0.656128, 0, 0
135009093, 0.019585, 0.0237891, 0.0334277, 0.0317871, -10.813, -0.322923, -0.440349, 19.7296, -1.23596, -0.183105, 0, 0
135009103, 0.0251221, 0.0241992, 0.0317871, 0.0317871, -10.8155, -0.25687, -0.401207, 18.2495, -1.297, 0.213623, 0, 0
135009113, 0.0221484, 0.0241992, 0.0321973, 0.0297363, -10.7054, -0.161461, -0.349833, 17.1051, -1.34277, 0.564575, 0, 0
135009133, 0.0251221, 0.0255322, 0.034248, 0.031377, -10.5586, -0.00978554, -0.273995, 16.2048, -1.32751, 0.900268, 0, 0
135009143, 0.0229687, 0.0237891, 0.034248, 0.031377, -10.4461, 0.0733915, -0.200604, 15.9454, -1.38855, 0.762939, 0, 0
135009153, 0.0225586, 0.0241992, 0.0330176, 0.0317871, -10.4583, 0.166354, -0.173693, 15.3198, -1.20544, 0.396728, 0, 0
135009163, 0.0247119, 0.0241992, 0.0317871, 0.0297363, -10.3507, 0.22996, -0.100302, 14.1602, -1.09863, 0.0305176, 0, 0
135009173, 0.0237891, 0.0267627, 0.0334277, 0.0330176, -10.2406, 0.271549, -0.0611596, 12.8479, -1.00708, -0.320435, 0, 0
135009183, 0.0237891, 0.0221484, 0.0334277, 0.0334277, -10.1525, 0.22996, -0.0342494, 11.3983, -0.808716, -0.473022, 0, 0
135009193, 0.0237891, 0.0237891, 0.0334277, 0.0334277, -10.0302, 0.215282, 0.0293566, 9.76562, -0.762939, -0.350952, 0, 0
135009233, 0.0247119, 0.0255322, 0.0351709, 0.0326074, -9.77086, 0.185925, -0.0171247, 3.31116, -0.808716, 0.579834, 0, 0
135009243, 0.0247119, 0.0251221, 0.0351709, 0.0326074, -9.5727, 0.220175, -0.031803, 2.16675, -0.640869, 0.595093, 0, 0
135009253, 0.020918, 0.0237891, 0.0355811, 0.0305566, -9.66322, 0.247085, -0.0684988, 0.839233, -0.595093, 0.442505, 0, 0
135009263, 0.0233789, 0.0247119, 0.034248, 0.0330176, -9.66322, 0.293566, -0.0856234, -0.0305176, -0.610352, 0.305176, 0, 0
135009273, 0.0229687, 0.0247119, 0.0347607, 0.0297363, -9.71948, 0.251978, -0.0782843, -0.366211, -0.518799, 0.0152588, 0, 0
135009283, 0.0233789, 0.0237891, 0.0326074, 0.0321973, -9.62897, 0.200604, -0.0733915, -0.213623, -0.534058, -0.152588, 0, 0
135009293, 0.0233789, 0.0229687, 0.0326074, 0.0321973, -9.69502, 0.193264, -0.0660524, 0.0457764, -0.686645, -0.228882, 0, 0
135009303, 0.0237891, 0.020918, 0.0326074, 0.031377, -9.88584, 0.183479, -0.0978554, 0.305176, -0.549316, -0.213623, 0, 0
135009323, 0.0213281, 0.0237891, 0.0330176, 0.0317871, -9.96168, 0.198157, -0.146783, -0.549316, -0.595093, 0.0457764, 0, 0
135009333, 0.0213281, 0.0247119, 0.0326074, 0.0317871, -10.2283, 0.232406, -0.124766, -1.2207, -0.549316, 0.106812, 0, 0
135009343, 0.0213281, 0.0221484, 0.0338379, 0.0317871, -10.3702, 0.271549, -0.129658, -1.78528, -0.518799, 0.0610352, 0, 0
135009353, 0.0229687, 0.0247119, 0.0338379, 0.0317871, -10.4167, 0.305798, -0.119873, -2.10571, -0.564575, 0.106812, 0, 0
135009363, 0.0229687, 0.0251221, 0.0334277, 0.0309668, -10.4925, 0.362065, -0.0905162, -1.93787, -0.579834, 0.0457764, 0, 0
135009373, 0.0221484, 0.0251221, 0.0334277, 0.0338379, -10.5146, 0.435456, -0.0758379, -1.72424, -0.640869, 0.0610352, 0, 0
135009383, 0.0229687, 0.0225586, 0.0334277, 0.0334277, -10.3996, 0.445242, -0.0905162, -1.95312, -0.534058, -0.12207, 0, 0
135009403, 0.0237891, 0.0251221, 0.0351709, 0.0317871, -10.2577, 0.462367, -0.0709451, -2.27356, -0.183105, -0.335693, 0, 0
135009413, 0.0237891, 0.0233789, 0.0334277, 0.0330176, -10.1256, 0.4061, -0.0905162, -2.38037, -0.167847, -0.442505, 0, 0
135009423, 0.0225586, 0.0237891, 0.0330176, 0.0347607, -9.95923, 0.357172, -0.0782843, -2.39563, -0.244141, -0.488281, 0, 0
135009433, 0.0225586, 0.0237891, 0.0351709, 0.0305566, -9.9103, 0.293566, -0.0905162, -2.28882, -0.289917, -0.549316, 0, 0
135009443, 0.0225586, 0.0241992, 0.034248, 0.0347607, -9.88829, 0.273995, -0.0782843, -2.31934, -0.350952, -0.762939, 0, 0
135009453, 0.0225586, 0.0247119, 0.034248, 0.0347607, -9.86382, 0.207943, -0.0831771, -2.5177, -0.335693, -0.869751, 0, 0
135009463, 0.0233789, 0.0247119, 0.0334277, 0.0351709, -9.8785, 0.136998, -0.0440349, -2.97546, -0.335693, -0.854492, 0, 0
135009473, 0.0233789, 0.0237891, 0.0330176, 0.0305566, -9.85648, 0.0709451, -0.00489277, -3.50952, -0.411987, -0.88501, 0, 0
135009493, 0.0225586, 0.0229687, 0.0330176, 0.0321973, -9.90786, -0.0342494, 0.0758379, -4.24194, -0.534058, -0.686645, 0, 0
135009503, 0.0225586, 0.0233789, 0.0309668, 0.0321973, -9.947, -0.0611596, 0.0978554, -4.37927, -0.610352, -0.50354, 0, 0
135009513, 0.0241992, 0.0221484, 0.0309668, 0.0347607, -10.0424, -0.0415885, 0.149229, -4.19617, -0.579834, -0.411987, 0, 0
135009523, 0.0233789, 0.0237891, 0.0326074, 0.0338379, -10.1085, -0.00733915, 0.159015, -4.0741, -0.549316, -0.38147, 0, 0
135009533, 0.0241992, 0.0237891, 0.034248, 0.0317871, -10.1036, 0.0440349, 0.190818, -4.3335, -0.457764, -0.274658, 0, 0
135009543, 0.020918, 0.0237891, 0.0338379, 0.0321973, -10.0644, 0.0611596, 0.212835, -4.76074, -0.366211, -0.289917, 0, 0
135009553, 0.020918, 0.0233789, 0.034248, 0.0309668, -9.97635, 0.0978554, 0.288673, -5.5542, -0.274658, -0.274658, 0, 0
135009573, 0.0237891, 0.0241992, 0.034248, 0.0317871, -10.0277, 0.0709451, 0.364511, -7.33948, 0.0610352, -0.274658, 0, 0
135009583, 0.0233789, 0.0241992, 0.0364014, 0.0321973, -10.1427, 0.0562668, 0.369404, -7.64465, 0.259399, -0.259399, 0, 0
135009593, 0.0225586, 0.0237891, 0.0334277, 0.0334277, -10.1623, 0.0366958, 0.320476, -7.64465, 0.457764, -0.106812, 0, 0
135009603, 0.0233789, 0.0233789, 0.0351709, 0.0309668, -10.1672, 0.0611596, 0.288673, -7.59888, 0.839233, -0.152588, 0, 0
135009613, 0.0233789, 0.0263525, 0.0351709, 0.0309668, -10.1623, 0.105195, 0.244638, -7.62939, 1.14441, 0, 0, 0
135009623, 0.0233789, 0.0237891, 0.0334277, 0.0347607, -10.2797, 0.119873, 0.239746, -7.59888, 1.2207, 0.0457764, 0, 0
135009633, 0.0237891, 0.0233789, 0.034248, 0.0321973, -10.4363, 0.129658, 0.259317, -7.52258, 1.20544, 0.152588, 0, 0
135009643, 0.0221484, 0.0233789, 0.0351709, 0.0321973, -10.3825, 0.102748, 0.234853, -7.15637, 1.17493, 0.198364, 0, 0
135009663, 0.0213281, 0.0241992, 0.034248, 0.0347607, -10.3849, 0.181032, 0.156569, -6.3324, 1.31226, 0.228882, 0, 0
135009673, 0.0229687, 0.0263525, 0.0347607, 0.0317871, -10.287, 0.273995, 0.122319, -6.02722, 1.51062, 0.183105, 0, 0
135009683, 0.0251221, 0.0263525, 0.0338379, 0.0334277, -10.3017, 0.335155, 0.0880698, -6.11877, 1.54114, 0, 0, 0
135009693, 0.0217383, 0.0263525, 0.0351709, 0.0321973, -10.2968, 0.37185, 0.063606, -5.98144, 1.43433, -0.0915527, 0, 0
135009703, 0.0217383, 0.0233789, 0.0334277, 0.0317871, -10.2993, 0.278888, 0.00489277, -5.49316, 1.51062, -0.228882, 0, 0
135009713, 0.0217383, 0.0241992, 0.0347607, 0.0317871, -10.2675, 0.215282, -0.0366958, -5.12695, 1.57166, -0.38147, 0, 0
135009723, 0.0229687, 0.0259424, 0.0347607, 0.034248, -10.1867, 0.122319, -0.0856234, -4.88281, 1.46484, -0.442505, 0, 0
135009743, 0.0225586, 0.0237891, 0.0338379, 0.034248, -10.0057, 0.185925, -0.159015, -4.74548, 1.297, -0.213623, 0, 0
135009753, 0.0247119, 0.0251221, 0.034248, 0.0347607, -9.85893, 0.261763, -0.146783, -5.2948, 1.14441, -0.137329, 0, 0
135009763, 0.0247119, 0.0255322, 0.034248, 0.0326074, -9.79532, 0.352279, -0.149229, -5.82886, 1.08337, -0.167847, 0, 0
135009773, 0.0229687, 0.0247119, 0.034248, 0.0326074, -9.69257, 0.357172, -0.122319, -6.22559, 1.05286, -0.350952, 0, 0
135009783, 0.0233789, 0.0259424, 0.0347607, 0.0338379, -9.74884, 0.303352, -0.132105, -6.45447, 1.08337, -0.595093, 0, 0
135009793, 0.0241992, 0.0259424, 0.0338379, 0.0321973, -9.86627, 0.225067, -0.173693, -6.46973, 1.12915, -0.823975, 0, 0
135009803, 0.0233789, 0.0237891, 0.0355811, 0.0321973, -9.947, 0.134551, -0.222621, -6.50024, 1.20544, -0.915527, 0, 0
135009813, 0.0233789, 0.0255322, 0.0347607, 0.0321973, -10.0644, 0.031803, -0.283781, -6.56128, 1.19019, -0.732422, 0, 0
135009833, 0.0229687, 0.0237891, 0.0338379, 0.034248, -10.0326, -0.00489277, -0.31803, -7.47681, 1.00708, -0.38147, 0, 0
135009843, 0.0229687, 0.0237891, 0.0347607, 0.0330176, -9.94211, 0.0489277, -0.300905, -7.93457, 0.915527, -0.228882, 0, 0
135009853, 0.0225586, 0.0259424, 0.0355811, 0.0330176, -10.1378, 0.102748, -0.352279, -8.22449, 0.961304, -0.259399, 0, 0
135009863, 0.0241992, 0.0229687, 0.0330176, 0.0321973, -10.1452, 0.146783, -0.34494, -7.93457, 0.762939, -0.305176, 0, 0
135009873, 0.0241992, 0.0241992, 0.0330176, 0.0321973, -10.0179, 0.185925, -0.364511, -7.44629, 0.640869, -0.305176, 0, 0
135009883, 0.0241992, 0.0233789, 0.0330176, 0.0326074, -9.98614, 0.207943, -0.386529, -6.98852, 0.549316, -0.38147, 0, 0
135009893, 0.0225586, 0.0251221, 0.034248, 0.0317871, -9.86382, 0.207943, -0.391421, -6.66809, 0.564575, -0.549316, 0, 0
135009903, 0.0213281, 0.0251221, 0.0330176, 0.0338379, -9.87605, 0.198157, -0.374297, -6.56128, 0.473022, -0.62561, 0, 0
135009923, 0.0251221, 0.0251221, 0.0351709, 0.0330176, -9.57025, 0.173693, -0.293566, -7.36999, 0.366211, -0.534058, 0, 0
135009933, 0.0229687, 0.0225586, 0.0351709, 0.0317871, -9.78309, 0.0807307, -0.315584, -8.11768, 0.213623, -0.488281, 0, 0
135009943, 0.0241992, 0.0241992, 0.0359912, 0.0317871, -9.83691, 0.136998, -0.242192, -8.5144, 0.259399, -0.595093, 0, 0
135009953, 0.0233789, 0.0241992, 0.0355811, 0.031377, -9.8418, 0.0929626, -0.34494, -8.86536, 0.137329, -0.595093, 0, 0
135009963, 0.0225586, 0.0217383, 0.0364014, 0.0326074, -9.81245, 0.095409, -0.320476, -9.32312, 0.213623, -0.549316, 0, 0
135009973, 0.0225586, 0.0255322, 0.0334277, 0.034248, -10.0106, 0.0269102, -0.359618, -9.39941, 0.137329, -0.564575, 0, 0
135009983, 0.0221484, 0.0229687, 0.0334277, 0.034248, -10.1721, 0.0146783, -0.325369, -9.26208, 0.0305176, -0.534058, 0, 0
135010023, 0.0233789, 0.0267627, 0.0355811, 0.0317871, -10.2773, 0.102748, -0.217728, -6.66809, -0.244141, -0.305176, 0, 0
135010033, 0.0233789, 0.0247119, 0.0355811, 0.0317871, -10.106, 0.168801, -0.195711, -6.11877, -0.366211, -0.350952, 0, 0
135010043, 0.0241992, 0.0247119, 0.0351709, 0.0326074, -10.0815, 0.20305, -0.207943, -5.75256, -0.244141, -0.396728, 0, 0
135010053, 0.0229687, 0.0247119, 0.0364014, 0.0321973, -10.1256, 0.195711, -0.193264, -5.53894, -0.213623, -0.534058, 0, 0
135010063, 0.0225586, 0.0255322, 0.0321973, 0.034248, -10.265, 0.134551, -0.225067, -5.20325, -0.198364, -0.717163, 0, 0
135010073, 0.0241992, 0.0255322, 0.0338379, 0.031377, -10.4045, 0.095409, -0.232406, -4.5929, -0.228882, -0.640869, 0, 0
135010083, 0.0241992, 0.0255322, 0.0338379, 0.031377, -10.4583, 0.0220175, -0.288673, -3.60107, -0.259399, -0.579834, 0, 0
135010093, 0.0217383, 0.0229687, 0.0338379, 0.0326074, -10.4412, 0.0293566, -0.320476, -2.65503, -0.335693, -0.457764, 0, 0
135010113, 0.0221484, 0.0233789, 0.0359912, 0.0321973, -10.0718, 0.181032, -0.413439, -0.808716, -0.534058, -0.442505, 0, 0
135010123, 0.0221484, 0.0255322, 0.0334277, 0.0347607, -9.97635, 0.251978, -0.401207, -0.259399, -0.686645, -0.564575, 0, 0
135010133, 0.0221484, 0.0247119, 0.0351709, 0.0347607, -9.96657, 0.259317, -0.388975, -0.137329, -0.778198, -0.701904, 0, 0
135010143, 0.0237891, 0.0237891, 0.0351709, 0.0326074, -9.94455, 0.234853, -0.374297, -0.366211, -0.778198, -0.793457, 0, 0
135010153, 0.0221484, 0.0263525, 0.0347607, 0.0297363, -9.80755, 0.25687, -0.369404, -0.62561, -0.88501, -0.762939, 0, 0
135010163, 0.0233789, 0.0263525, 0.0338379, 0.0330176, -9.67056, 0.237299, -0.37185, -1.05286, -1.02234, -0.717163, 0, 0
135010173, 0.0205078, 0.0247119, 0.034248, 0.0321973, -9.5727, 0.239746, -0.332708, -1.5564, -1.14441, -0.732422, 0, 0
135010193, 0.0229687, 0.0241992, 0.0368115, 0.0334277, -9.46506, 0.220175, -0.25687, -2.57874, -1.26648, -1.02234, 0, 0
135010203, 0.0237891, 0.0259424, 0.0351709, 0.0330176, -9.49197, 0.166354, -0.222621, -3.05176, -1.32751, -1.0376, 0, 0
135010213, 0.0221484, 0.0259424, 0.034248, 0.0317871, -9.57025, 0.151676, -0.215282, -3.44849, -1.2207, -1.11389, 0, 0
135010223, 0.020918, 0.0237891, 0.0351709, 0.0338379, -9.69747, 0.132105, -0.225067, -3.72314, -1.26648, -0.976562, 0, 0
135010233, 0.0225586, 0.0255322, 0.0376318, 0.034248, -9.86871, 0.0342494, -0.205496, -3.92151, -1.28174, -1.05286, 0, 0
135010243, 0.0225586, 0.0271729, 0.0376318, 0.034248, -10.084, -0.0244638, -0.220175, -3.90625, -1.34277, -1.02234, 0, 0
135010253, 0.0233789, 0.0255322, 0.0334277, 0.0326074, -10.2308, -0.0807307, -0.227514, -3.44849, -1.25122, -1.0376, 0, 0
135010263, 0.0259424, 0.0255322, 0.0368115, 0.0317871, -10.221, -0.129658, -0.17614, -3.02124, -1.32751, -0.946045, 0, 0
135010283, 0.0233789, 0.0233789, 0.0372217, 0.0317871, -10.1721, -0.190818, -0.0513741, -2.80762, -1.57166, -0.762939, 0, 0
135010293, 0.0233789, 0.0233789, 0.0372217, 0.0317871, -9.99593, -0.183479, -0.00978554, -2.47192, -1.63269, -0.564575, 0, 0
135010303, 0.0200977, 0.0251221, 0.0355811, 0.0326074, -9.79532, -0.063606, 0.0807307, -2.41089, -1.61743, -0.564575, 0, 0
135010313, 0.0255322, 0.0267627, 0.0355811, 0.0321973, -9.58493, 0.0684988, 0.156569, -2.60925, -1.70898, -0.595093, 0, 0
135010323, 0.0217383, 0.0267627, 0.0351709, 0.0326074, -9.40145, 0.188372, 0.286227, -2.80762, -1.67847, -0.701904, 0, 0
135010333, 0.0221484, 0.0255322, 0.0359912, 0.0326074, -9.39411, 0.25687, 0.269102, -2.82288, -1.54114, -1.00708, 0, 0
135010343, 0.0221484, 0.0247119, 0.0372217, 0.0326074, -9.46995, 0.264209, 0.198157, -2.59399, -1.41907, -1.19019, 0, 0
135010363, 0.0237891, 0.0251221, 0.0372217, 0.0334277, -9.94455, 0.11498, -0.0807307, -2.50244, -0.930786, -0.946045, 0, 0
135010373, 0.0217383, 0.0251221, 0.0351709, 0.0364014, -10.0815, 0.0220175, -0.168801, -2.10571, -0.961304, -0.747681, 0, 0
135010383, 0.0221484, 0.0241992, 0.0359912, 0.034248, -10.1085, 0.0122319, -0.149229, -1.63269, -1.05286, -0.717163, 0, 0
135010393, 0.0221484, 0.0241992, 0.0351709, 0.034248, -10.0057, 0.0195711, -0.149229, -1.2207, -1.28174, -0.778198, 0, 0
135010403, 0.0221484, 0.0247119, 0.0351709, 0.0338379, -9.91764, 0.0513741, -0.0807307, -0.50354, -1.32751, -0.930786, 0, 0
135010413, 0.0237891, 0.0259424, 0.0351709, 0.031377, -9.85159, 0.107641, -0.0244638, 0.274658, -1.32751, -1.02234, 0, 0
135010423, 0.0251221, 0.0259424, 0.0355811, 0.0351709, -9.79532, 0.117426, 0.031803, 0.869751, -1.37329, -1.06812, 0, 0
135010433, 0.0233789, 0.0259424, 0.0355811, 0.0334277, -9.83202, 0.154122, 0.0856234, 1.46484, -1.28174, -1.06812, 0, 0
135010453, 0.0221484, 0.0263525, 0.0368115, 0.0326074, -9.95678, 0.0856234, 0.149229, 1.89209, -1.23596, -1.06812, 0, 0
135010463, 0.0213281, 0.0225586, 0.0355811, 0.0330176, -10.0644, 0.0831771, 0.22996, 2.22778, -1.15967, -1.11389, 0, 0
135010473, 0.0221484, 0.0225586, 0.0359912, 0.0326074, -10.1892, 0.0293566, 0.276441, 2.39563, -1.00708, -1.06812, 0, 0
135010483, 0.0233789, 0.0233789, 0.0355811, 0.0305566, -10.1867, 0.0171247, 0.359618, 2.30408, -0.900268, -1.02234, 0, 0
135010493, 0.0229687, 0.0251221, 0.0351709, 0.034248, -10.199, -0.0122319, 0.423224, 2.10571, -0.778198, -1.0376, 0, 0
135010503, 0.0229687, 0.0259424, 0.0351709, 0.034248, -10.2137, -0.0489277, 0.496616, 2.12097, -0.488281, -1.00708, 0, 0
135010513, 0.0221484, 0.0237891, 0.0359912, 0.0351709, -10.1916, -0.063606, 0.525973, 2.27356, -0.274658, -0.991821, 0, 0
135010533, 0.0217383, 0.0241992, 0.0355811, 0.0326074, -10.2455, -0.0709451, 0.52108, 2.83813, 0.320435, -0.869751, 0, 0
135010543, 0.0217383, 0.0225586, 0.0359912, 0.0334277, -10.2357, -0.0293566, 0.496616, 3.15857, 0.610352, -0.854492, 0, 0
135010553, 0.0217383, 0.0221484, 0.0372217, 0.0334277, -10.1452, -0.0146783, 0.425671, 3.2959, 0.854492, -0.869751, 0, 0
135010563, 0.0217383, 0.0267627, 0.0372217, 0.0347607, -9.99837, -0.0538205, 0.362065, 3.41797, 1.0376, -0.854492, 0, 0
135010573, 0.0233789, 0.0247119, 0.0364014, 0.0305566, -9.93721, -0.0489277, 0.315584, 3.64685, 1.0376, -0.839233, 0, 0
135010583, 0.0225586, 0.0247119, 0.0355811, 0.0305566, -9.86382, -0.0758379, 0.217728, 4.10461, 1.0376, -0.808716, 0, 0
135010593, 0.0237891, 0.0229687, 0.0372217, 0.0355811, -9.947, -0.0978554, 0.178586, 4.83704, 0.961304, -0.717163, 0, 0
135010603, 0.0225586, 0.0237891, 0.0338379, 0.0334277, -9.76352, -0.0880698, -0.00733915, 7.0343, 0.793457, -0.808716, 0, 0
135010653, 0.0221484, 0.0247119, 0.0364014, 0.0309668, -9.76352, -0.0880698, -0.00733915, 7.0343, 0.808716, -0.778198, 0, 0
135010663, 0.0221484, 0.0251221, 0.0364014, 0.0309668, -9.86137, -0.102748, 0.00733915, 7.75146, 0.869751, -0.732422, 0, 0
135010673, 0.020918, 0.0247119, 0.0351709, 0.0338379, -9.92009, -0.156569, 0.0440349, 8.11768, 0.930786, -0.686645, 0, 0
135010683, 0.0233789, 0.0247119, 0.0368115, 0.034248, -9.92253, -0.144337, 0.0709451, 8.02612, 0.930786, -0.640869, 0, 0
135010693, 0.0221484, 0.0247119, 0.0368115, 0.0347607, -9.92987, -0.124766, 0.107641, 7.18689, 0.930786, -0.534058, 0, 0
135010703, 0.0225586, 0.0217383, 0.0359912, 0.0364014, -9.97635, -0.119873, 0.144337, 6.02722, 0.976562, -0.457764, 0, 0
135010713, 0.0225586, 0.0229687, 0.0359912, 0.0364014, -10.0033, -0.117426, 0.0856234, 5.24902, 1.20544, -0.396728, 0, 0
135010733, 0.0213281, 0.0221484, 0.0338379, 0.0317871, -10.1916, -0.102748, -0.0244638, 5.00488, 1.49536, -0.396728, 0, 0
135010743, 0.019585, 0.0221484, 0.0351709, 0.0347607, -10.3213, -0.0782843, -0.063606, 4.47083, 1.49536, -0.335693, 0, 0
135010753, 0.0229687, 0.0233789, 0.034248, 0.0334277, -10.4314, -0.0831771, -0.0611596, 3.52478, 1.51062, -0.228882, 0, 0
135010763, 0.0229687, 0.0233789, 0.0359912, 0.0334277, -10.4485, -0.105195, -0.0684988, 2.27356, 1.26648, -0.183105, 0, 0
135010773, 0.0200977, 0.0237891, 0.0359912, 0.0355811, -10.4118, -0.11498, -0.0684988, 1.06812, 1.2207, -0.137329, 0, 0
135010783, 0.0237891, 0.0229687, 0.0368115, 0.0338379, -10.358, -0.139444, -0.0807307, 0.213623, 1.25122, -0.12207, 0, 0
135010793, 0.0241992, 0.0229687, 0.0359912, 0.0321973, -10.2724, -0.124766, -0.119873, -0.0915527, 1.26648, -0.0305176, 0, 0
135010803, 0.0217383, 0.0229687, 0.0372217, 0.0317871, -10.1476, -0.102748, -0.207943, -0.457764, 1.28174, 0.0610352, 0, 0
135010823, 0.019585, 0.0255322, 0.0372217, 0.0330176, -10.0008, -0.0366958, -0.212835, -0.671387, 1.20544, 0.0457764, 0, 0
135010833, 0.0229687, 0.0221484, 0.0359912, 0.034248, -9.98369, -0.0269102, -0.212835, -0.564575, 1.05286, 0.0152588, 0, 0
135010843, 0.0217383, 0.0221484, 0.0338379, 0.0317871, -9.86871, 0.0171247, -0.22996, -0.442505, 1.02234, 0, 0, 0
135010853, 0.0217383, 0.0263525, 0.0338379, 0.0317871, -9.73172, 0.0391421, -0.332708, -0.427246, 0.991821, -0.0305176, 0, 0
135010863, 0.0205078, 0.0241992, 0.0359912, 0.0334277, -9.69013, 0.0929626, -0.4061, -0.991821, 0.930786, -0.0610352, 0, 0
135010873, 0.0205078, 0.0247119, 0.0359912, 0.0334277, -9.75129, 0.117426, -0.501509, -1.43433, 0.793457, -0.106812, 0, 0
135010883, 0.0229687, 0.0233789, 0.0347607, 0.0326074, -9.87116, 0.112534, -0.628721, -1.93787, 0.62561, -0.137329, 0, 0
135010903, 0.0213281, 0.0225586, 0.0364014, 0.0351709, -10.0913, 0.00733915, -0.707005, -2.36511, 0.12207, -0.183105, 0, 0
135010913, 0.0217383, 0.0221484, 0.0359912, 0.0338379, -9.93477, -0.00978554, -0.707005, -2.31934, -0.305176, -0.167847, 0, 0
135010923, 0.0217383, 0.0221484, 0.0359912, 0.0338379, -9.76352, 0.0513741, -0.579793, -2.9602, -0.488281, -0.0915527, 0, 0
135010933, 0.0229687, 0.0241992, 0.0355811, 0.0347607, -9.49686, 0.149229, -0.503955, -3.67737, -0.717163, -0.167847, 0, 0
135010943, 0.0217383, 0.0241992, 0.0368115, 0.0338379, -9.37454, 0.215282, -0.450135, -4.34875, -0.762939, -0.411987, 0, 0
135010953, 0.0241992, 0.0237891, 0.0368115, 0.0330176, -9.42347, 0.220175, -0.354726, -4.91333, -0.732422, -0.579834, 0, 0
135010963, 0.0237891, 0.0247119, 0.0347607, 0.0338379, -9.71948, 0.178586, -0.308244, -5.41687, -0.762939, -0.701904, 0, 0
135010973, 0.0237891, 0.0241992, 0.0364014, 0.0338379, -10.0008, 0.107641, -0.244638, -5.37109, -0.946045, -0.579834, 0, 0
135010993, 0.0205078, 0.0237891, 0.0355811, 0.0326074, -10.1721, -0.0122319, -0.14189, -5.49316, -1.11389, -0.534058, 0, 0
135011003, 0.0247119, 0.0237891, 0.0368115, 0.0338379, -10.4192, -0.0146783, -0.110087, -5.06592, -0.900268, -0.564575, 0, 0
135011013, 0.0237891, 0.0251221, 0.0355811, 0.0305566, -10.8326, -0.0269102, -0.190818, -3.96728, -0.549316, -0.534058, 0, 0
135011023, 0.0213281, 0.0225586, 0.0351709, 0.0305566, -11.0454, -0.0171247, -0.288673, -2.36511, -0.244141, -0.320435, 0, 0
135011033, 0.0213281, 0.0255322, 0.0351709, 0.0330176, -10.7861, 0.0195711, -0.445242, -1.06812, -0.366211, -0.244141, 0, 0
135011043, 0.0247119, 0.0237891, 0.0372217, 0.031377, -10.2308, 0.0929626, -0.418332, -0.717163, -0.869751, -0.289917, 0, 0
135011053, 0.0213281, 0.0237891, 0.0376318, 0.034248, -9.90052, 0.205496, -0.388975, -1.0376, -1.20544, -0.411987, 0, 0
135011073, 0.0213281, 0.0263525, 0.0372217, 0.0321973, -9.54334, 0.261763, -0.217728, -2.18201, -1.28174, -0.88501, 0, 0
135011083, 0.0213281, 0.0241992, 0.0372217, 0.0321973, -9.64854, 0.283781, -0.278888, -2.71606, -1.17493, -0.991821, 0, 0
135011093, 0.0200977, 0.0247119, 0.0368115, 0.0334277, -9.49442, 0.220175, -0.340047, -3.52478, -1.44958, -0.946045, 0, 0
135011103, 0.0251221, 0.0247119, 0.0372217, 0.0359912, -9.07119, 0.271549, -0.584686, -4.45557, -2.01416, -0.869751, 0, 0
135011113, 0.0213281, 0.0251221, 0.0364014, 0.0305566, -10.0449, 0.200604, -0.127212, -2.54822, -2.67029, -0.961304, 0, 0
135011123, 0.0225586, 0.020918, 0.0368115, 0.0347607, -13.3597, 0.455027, -0.501509, -1.80054, -3.92151, -1.09863, 0, 0
135011133, 0.0225586, 0.0247119, 0.0368115, 0.0347607, -8.24921, 0.0562668, 0.846449, -0.610352, -2.31934, -1.80054, 0, 0
135011143, 0.0229687, 0.0225586, 0.0347607, 0.0359912, -11.1971, 0.217728, -0.266656, -0.0305176, -1.26648, -1.11389, 0, 0
135011163, 0.0205078, 0.0255322, 0.0364014, 0.031377, -10.0546, 0.381636, 0.205496, 0.167847, -1.61743, -1.297, 0, 0
135011173, 0.0229687, 0.0255322, 0.0355811, 0.0317871, -9.93721, -0.119873, 0.234853, 0.152588, -2.09045, -1.54114, 0, 0
135011183, 0.0225586, 0.0237891, 0.0347607, 0.0317871, -9.92253, 0.107641, 0.423224, 0.0762939, -1.2207, -1.46484, 0, 0
135011193, 0.0225586, 0.0247119, 0.0347607, 0.0351709, -10.0326, -0.205496, 0.518633, 0.152588, -0.671387, -1.4801, 0, 0
135011203, 0.0213281, 0.0233789, 0.0355811, 0.034248, -9.95923, 0.0489277, 0.702112, -0.518799, -0.930786, -1.43433, 0, 0
135011213, 0.0217383, 0.0233789, 0.0364014, 0.0330176, -9.9788, -0.00244638, 0.702112, -1.09863, -1.08337, -1.2207, 0, 0
135011223, 0.020918, 0.0241992, 0.038042, 0.0351709, -9.93721, 0.127212, 0.733915, -1.28174, -0.366211, -1.2207, 0, 0
135011243, 0.0221484, 0.0259424, 0.0364014, 0.034248, -9.94944, 0.151676, 0.596918, -1.0376, 0.0610352, -1.61743, 0, 0
135011253, 0.0213281, 0.0251221, 0.0364014, 0.0334277, -9.98859, 0.00489277, 0.533312, -1.09863, 0, -1.38855, 0, 0
135011263, 0.0205078, 0.0251221, 0.0364014, 0.0330176, -9.95189, -0.00978554, 0.570008, -1.5564, 0.274658, -1.49536, 0, 0
135011273, 0.0237891, 0.0237891, 0.0355811, 0.0334277, -9.95189, -0.173693, 0.577347, -2.09045, 0.38147, -1.64795, 0, 0
135011283, 0.0225586, 0.0225586, 0.0351709, 0.0347607, -9.94944, -0.340047, 0.606703, -2.92969, 0.62561, -1.61743, 0, 0
135011293, 0.0225586, 0.0217383, 0.0351709, 0.0347607, -9.94455, -0.506402, 0.555329, -3.78418, 0.732422, -1.35803, 0, 0
135011303, 0.0225586, 0.0217383, 0.0384521, 0.0351709, -9.95434, -0.560222, 0.469706, -4.34875, 0.930786, -1.14441, 0, 0
135011313, 0.0229687, 0.0217383, 0.0384521, 0.0326074, -9.96412, -0.611596, 0.369404, -4.56238, 1.17493, -1.05286, 0, 0
135011333, 0.0229687, 0.0225586, 0.0376318, 0.034248, -9.95189, -0.670309, 0.136998, -1.83105, 1.31226, -0.808716, 0, 0
135011343, 0.0229687, 0.0251221, 0.0376318, 0.034248, -9.97391, -0.733915, -0.00489277, -0.38147, 1.41907, -0.686645, 0, 0
135011353, 0.0229687, 0.0229687, 0.0392725, 0.034248, -10.0253, -0.709451, -0.171247, 0.488281, 1.54114, -0.579834, 0, 0
135011363, 0.0213281, 0.0229687, 0.0359912, 0.034248, -9.94211, -0.601811, -0.281334, 0.747681, 1.41907, -0.289917, 0, 0
135011373, 0.0205078, 0.0205078, 0.0355811, 0.0334277, -9.9788, -0.508848, -0.401207, 0.183105, 1.17493, -0.152588, 0, 0
135011383, 0.0217383, 0.0259424, 0.0364014, 0.0321973, -9.98369, -0.437903, -0.48683, -0.0762939, 1.00708, -0.0610352, 0, 0
135011393, 0.0233789, 0.0251221, 0.0355811, 0.0321973, -10.0155, -0.445242, -0.543097, 0.0305176, 0.961304, 0, 0, 0
135011433, 0.0213281, 0.0229687, 0.0372217, 0.0351709, -9.99593, -0.0929626, -0.550436, 0.0610352, 0.579834, 0.289917, 0, 0
135011443, 0.0200977, 0.0241992, 0.0355811, 0.0351709, -9.99837, -0.00978554, -0.543097, 0, 0.396728, 0.183105, 0, 0
135011453, 0.0200977, 0.0241992, 0.0355811, 0.0364014, -9.98859, -0.0733915, -0.584686, 0.228882, 0.167847, 0.244141, 0, 0
135011463, 0.0233789, 0.0247119, 0.0372217, 0.034248, -9.98125, -0.0562668, -0.479491, 0.213623, 0.0457764, 0.305176, 0, 0
135011473, 0.0229687, 0.0247119, 0.0364014, 0.0330176, -9.98125, -0.0733915, -0.440349, 0.167847, -0.0305176, 0.213623, 0, 0
135011483, 0.0225586, 0.0247119, 0.0359912, 0.0355811, -9.94211, -0.11498, -0.305798, 0.0915527, -0.152588, 0.213623, 0, 0
135011493, 0.0213281, 0.0237891, 0.0355811, 0.034248, -10.0253, -0.188372, -0.210389, 0.0915527, -0.259399, 0.152588, 0, 0
135011503, 0.0213281, 0.0229687, 0.0355811, 0.034248, -9.95189, -0.144337, -0.117426, -0.106812, -0.305176, 0.274658, 0, 0
135011523, 0.0217383, 0.0241992, 0.0351709, 0.0321973, -9.99837, -0.0220175, -0.296012, -0.12207, -0.137329, 0.213623, 0, 0
135011533, 0.020918, 0.0241992, 0.0359912, 0.0326074, -9.95923, -0.0538205, -0.225067, 0.0305176, -0.289917, 0.0610352, 0, 0
135011543, 0.0200977, 0.0241992, 0.0376318, 0.0338379, -9.99348, -0.156569, -0.132105, -0.167847, -0.442505, 0.259399, 0, 0
135011553, 0.0200977, 0.0237891, 0.0376318, 0.0338379, -9.95189, -0.154122, 0.396314, -0.488281, -0.686645, 0.289917, 0, 0
135011563, 0.0217383, 0.0229687, 0.038042, 0.034248, -9.95678, -0.239746, 0.110087, -0.366211, -0.335693, 0.366211, 0, 0
135011573, 0.0225586, 0.0229687, 0.0359912, 0.0326074, -9.99103, 0.0489277, -0.0856234, 0.0915527, 0.366211, 0.457764, 0, 0
135011583, 0.020918, 0.0225586, 0.0372217, 0.034248, -10.0204, 0.437903, -0.154122, -0.396728, 0.0610352, 0.442505, 0, 0
135011603, 0.0225586, 0.0233789, 0.0384521, 0.0334277, -9.9788, 0.0440349, 0.127212, -0.457764, -0.518799, -0.152588, 0, 0
135011613, 0.0225586, 0.0233789, 0.0384521, 0.0334277, -9.947, -0.340047, 0.266656, -0.427246, 0, -0.198364, 0, 0
135011623, 0.0191748, 0.0233789, 0.0355811, 0.0334277, -10.0082, -0.188372, -0.00489277, -0.411987, 0.213623, 0.198364, 0, 0
135011633, 0.020918, 0.0229687, 0.0338379, 0.0330176, -9.94455, -0.173693, -0.0391421, -0.534058, -0.0305176, 0.366211, 0, 0
135011643, 0.0217383, 0.0241992, 0.0351709, 0.0330176, -9.98859, -0.0489277, 0.107641, -0.854492, -0.411987, 0.167847, 0, 0
135011653, 0.0229687, 0.0237891, 0.0364014, 0.0330176, -9.93232, -0.207943, 0.185925, -0.839233, -0.137329, 0.0762939, 0, 0
135011663, 0.0229687, 0.0267627, 0.0364014, 0.034248, -9.98125, -0.105195, 0.308244, -0.793457, 0.289917, 0.259399, 0, 0
135011673, 0.0221484, 0.0247119, 0.0347607, 0.034248, -9.92743, -0.0709451, 0.190818, -0.335693, 0.213623, 0.274658, 0, 0
135011693, 0.020918, 0.0213281, 0.0376318, 0.0338379, -9.96902, -0.134551, 0.242192, -0.595093, 0.198364, 0.228882, 0, 0
135011703, 0.0221484, 0.0229687, 0.0359912, 0.0347607, -9.96412, -0.151676, 0.247085, -0.50354, 0.335693, 0.289917, 0, 0
135011713, 0.0221484, 0.0233789, 0.0359912, 0.0347607, -9.99103, -0.20305, 0.166354, -0.473022, 0.442505, 0.289917, 0, 0
135011723, 0.0217383, 0.0221484, 0.0372217, 0.0334277, -9.95434, -0.117426, 0.168801, -0.701904, 0.488281, 0.320435, 0, 0
135011733, 0.0205078, 0.0221484, 0.0364014, 0.0330176, -9.94944, -0.110087, 0.132105, -0.976562, 0.518799, 0.396728, 0, 0
135011743, 0.0200977, 0.0221484, 0.0372217, 0.0326074, -9.96412, -0.0733915, 0.159015, -1.51062, 0.610352, 0.457764, 0, 0
135011753, 0.0213281, 0.0217383, 0.0359912, 0.034248, -9.9788, 0.0195711, 0.107641, -2.36511, 0.640869, 0.427246, 0, 0
135011773, 0.0217383, 0.0225586, 0.038042, 0.0334277, -9.97146, 0.117426, 0.031803, -4.63867, 0.595093, 0.473022, 0, 0
135011783, 0.0200977, 0.0225586, 0.0368115, 0.0334277, -9.97391, 0.100302, -0.0758379, -5.21851, 0.610352, 0.38147, 0, 0
135011793, 0.0217383, 0.0229687, 0.0372217, 0.0355811, -9.96657, 0.183479, -0.063606, -5.41687, 0.839233, 0.320435, 0, 0
135011803, 0.0200977, 0.0221484, 0.0368115, 0.0338379, -9.97391, 0.127212, -0.063606, -5.43213, 0.839233, 0.213623, 0, 0
135011813, 0.0225586, 0.0225586, 0.0359912, 0.0338379, -9.9788, 0.146783, 0.0146783, -6.13403, 0.595093, 0.137329, 0, 0
135011823, 0.0225586, 0.0247119, 0.0359912, 0.0330176, -9.98125, 0.102748, 0.0366958, -7.1106, 0.656128, 0.12207, 0, 0
135011833, 0.0225586, 0.0247119, 0.0347607, 0.0326074, -9.96168, 0.129658, 0.0562668, -8.28552, 0.732422, 0.0457764, 0, 0
135011843, 0.019585, 0.0237891, 0.0351709, 0.034248, -9.96657, 0.127212, -0.031803, -9.33838, 0.808716, 0.0152588, 0, 0
135011863, 0.0233789, 0.0233789, 0.0364014, 0.0351709, -9.9788, 0.107641, -0.0660524, -10.788, 0.793457, -0.137329, 0, 0
135011873, 0.0233789, 0.0213281, 0.0364014, 0.0338379, -9.98614, 0.0195711, -0.0146783, -12.9242, 0.854492, -0.289917, 0, 0
135011883, 0.0213281, 0.0263525, 0.0392725, 0.0355811, -9.9788, -0.00244638, 0.063606, -15.9302, 0.869751, -0.320435, 0, 0
135011893, 0.0225586, 0.0263525, 0.0372217, 0.0338379, -9.96657, -0.0929626, 0, -18.7378, 0.946045, -0.137329, 0, 0
135011903, 0.0233789, 0.0213281, 0.038042, 0.0347607, -9.98125, -0.0587132, -0.095409, -19.928, 1.02234, -0.137329, 0, 0
135011913, 0.0213281, 0.0221484, 0.0364014, 0.0326074, -9.97635, -0.0244638, -0.207943, -19.3176, 0.915527, -0.0762939, 0, 0
135011923, 0.0213281, 0.0233789, 0.0364014, 0.0326074, -9.97635, 0.0366958, -0.244638, -18.4937, 0.717163, -0.12207, 0, 0
135011943, 0.0225586, 0.0233789, 0.0368115, 0.0347607, -9.98614, 0.0342494, -0.124766, -16.098, 0.717163, -0.274658, 0, 0
135011953, 0.0217383, 0.0229687, 0.0376318, 0.0330176, -9.98614, 0.0391421, -0.0562668, -16.1743, 0.671387, -0.350952, 0, 0
135011963, 0.0221484, 0.0225586, 0.0372217, 0.0347607, -9.98125, 0, 0.0684988, -17.7612, 0.717163, -0.442505, 0, 0
135011973, 0.0225586, 0.0233789, 0.0372217, 0.0347607, -9.96657, -0.0880698, -0.0440349, -19.104, 0.976562, -0.518799, 0, 0
135011983, 0.0225586, 0.0225586, 0.0359912, 0.0347607, -9.98369, -0.17614, -0.281334, -17.7002, 1.19019, -0.320435, 0, 0
135011993, 0.0200977, 0.0225586, 0.0384521, 0.0338379, -9.97635, -0.20305, -0.513741, -12.8632, 0.976562, -0.274658, 0, 0
135012003, 0.0229687, 0.0205078, 0.0376318, 0.034248, -9.99837, -0.0587132, -0.491723, -8.30078, 0.50354, -0.305176, 0, 0
135012013, 0.0205078, 0.0237891, 0.0351709, 0.0351709, -9.98369, -0.0660524, -0.413439, -4.91333, 0.366211, -0.335693, 0, 0
135012033, 0.0213281, 0.0233789, 0.0359912, 0.0355811, -10.0033, 0.00733915, -0.181032, -4.62341, 0.656128, -0.411987, 0, 0
135012043, 0.0233789, 0.0233789, 0.0376318, 0.0364014, -9.98125, 0.0489277, -0.227514, -6.39343, 0.579834, -0.320435, 0, 0
135012053, 0.0205078, 0.0221484, 0.0364014, 0.0359912, -9.98859, 0.0146783, -0.286227, -8.11768, 0.396728, -0.228882, 0, 0
135012063, 0.0233789, 0.0205078, 0.0351709, 0.034248, -9.96902, -0.0929626, -0.408546, -9.17053, 0.396728, -0.320435, 0, 0
135012073, 0.0221484, 0.0229687, 0.0376318, 0.034248, -9.98369, -0.225067, -0.604257, -7.17163, 0.564575, -0.457764, 0, 0
135012083, 0.0221484, 0.0259424, 0.0376318, 0.0330176, -9.98614, -0.29112, -0.623828, -1.5564, 0.274658, -0.442505, 0, 0
135012093, 0.020918, 0.0259424, 0.0376318, 0.0351709, -9.98859, -0.178586, -0.388975, 1.61743, -0.137329, -0.350952, 0, 0
135012113, 0.0221484, 0.0225586, 0.0351709, 0.0334277, -9.9788, -0.210389, -0.266656, 0.717163, -0.0762939, -0.350952, 0, 0
135012123, 0.0205078, 0.0255322, 0.0372217, 0.0355811, -9.96902, -0.313137, -0.217728, 0.976562, -0.0305176, -0.457764, 0, 0
135012133, 0.0205078, 0.0251221, 0.0372217, 0.0355811, -9.98859, -0.300905, -0.242192, 1.32751, -0.167847, -0.244141, 0, 0
135012143, 0.020918, 0.0241992, 0.0351709, 0.0355811, -9.97146, -0.227514, -0.242192, 1.49536, -0.213623, 0.0762939, 0, 0
135012153, 0.0213281, 0.0241992, 0.0368115, 0.0355811, -9.98369, -0.063606, -0.254424, 1.67847, -0.274658, 0.0305176, 0, 0
135012163, 0.0191748, 0.020918, 0.0359912, 0.0321973, -9.95923, -0.0220175, -0.286227, 1.61743, -0.289917, -0.213623, 0, 0
135012173, 0.020918, 0.0241992, 0.0368115, 0.0351709, -9.98125, -0.0269102, -0.185925, 1.70898, -0.305176, -0.183105, 0, 0
135012183, 0.0229687, 0.0237891, 0.0368115, 0.0351709, -9.97635, 0.0562668, -0.117426, 1.72424, -0.442505, -0.0305176, 0, 0
135012223, 0.0213281, 0.0255322, 0.038042, 0.0321973, -9.99348, 0.474599, -0.403653, 0.915527, -0.442505, -0.610352, 0, 0
135012233, 0.0247119, 0.0229687, 0.038042, 0.0321973, -9.98125, 0.403653, -0.452581, 0.88501, -0.564575, -0.808716, 0, 0
135012243, 0.0247119, 0.0251221, 0.038042, 0.0338379, -9.98614, 0.362065, -0.366958, 0.946045, -0.62561, -1.02234, 0, 0
135012253, 0.0213281, 0.0251221, 0.0351709, 0.034248, -9.97635, 0.310691, -0.322923, 0.595093, -0.778198, -1.05286, 0, 0
135012263, 0.0213281, 0.0225586, 0.0355811, 0.0334277, -9.98125, 0.20305, -0.293566, 0.366211, -0.854492, -1.17493, 0, 0
135012273, 0.0233789, 0.0233789, 0.0359912, 0.0338379, -9.97391, 0.0807307, -0.205496, 0.350952, -0.900268, -1.31226, 0, 0
135012283, 0.0237891, 0.0263525, 0.0364014, 0.0338379, -10.0253, -0.0831771, -0.151676, 0.732422, -0.991821, -1.26648, 0, 0
135012293, 0.0237891, 0.0221484, 0.0364014, 0.0330176, -9.94944, -0.110087, -0.0807307, 1.63269, -0.930786, -1.31226, 0, 0
135012313, 0.0213281, 0.0233789, 0.0364014, 0.0347607, -9.9788, -0.354726, -0.232406, 1.20544, -0.656128, -1.52588, 0, 0
135012323, 0.0237891, 0.0225586, 0.0364014, 0.0364014, -9.95923, -0.582239, -0.266656, 0.213623, -0.732422, -1.43433, 0, 0
135012333, 0.0205078, 0.0229687, 0.0351709, 0.0364014, -9.98125, -0.577347, -0.0782843, 0.396728, -1.17493, -0.930786, 0, 0
135012343, 0.0205078, 0.0225586, 0.0351709, 0.0330176, -9.947, -0.511294, 0.0293566, 0.0610352, -1.20544, -0.518799, 0, 0
135012353, 0.0213281, 0.0237891, 0.0372217, 0.0326074, -9.9788, -0.457474, 0.0709451, -0.167847, -0.915527, -0.671387, 0, 0
135012363, 0.0221484, 0.0237891, 0.0364014, 0.0334277, -9.95923, -0.4061, 0.181032, 0.0152588, -0.778198, -0.732422, 0, 0
135012373, 0.0205078, 0.0233789, 0.0384521, 0.0334277, -9.9788, -0.376743, 0.254424, 0.396728, -0.88501, -0.457764, 0, 0
135012393, 0.020918, 0.0241992, 0.0384521, 0.0321973, -9.95923, -0.217728, 0.278888, -0.289917, -0.549316, -0.427246, 0, 0
135012403, 0.020918, 0.0237891, 0.0355811, 0.0326074, -9.97391, -0.168801, 0.298459, -0.198364, -0.411987, -0.534058, 0, 0
135012413, 0.019585, 0.0237891, 0.0347607, 0.0351709, -9.95923, -0.225067, 0.283781, -0.244141, -0.350952, -0.411987, 0, 0
135012423, 0.0213281, 0.0213281, 0.0359912, 0.0351709, -9.95923, -0.330262, 0.254424, -0.473022, -0.289917, -0.335693, 0, 0
135012433, 0.020918, 0.0217383, 0.034248, 0.0351709, -9.96168, -0.369404, 0.303352, -0.152588, -0.244141, -0.335693, 0, 0
135012443, 0.019585, 0.0221484, 0.0368115, 0.0351709, -9.96412, -0.442796, 0.37185, 0.0762939, -0.106812, -0.274658, 0, 0
135012453, 0.019585, 0.0251221, 0.0368115, 0.034248, -9.98369, -0.48683, 0.362065, 0.0762939, 0.0762939, -0.12207, 0, 0
135012463, 0.0200977, 0.0251221, 0.0368115, 0.0330176, -9.96412, -0.386529, 0.303352, -0.0610352, 0.198364, 0.0610352, 0, 0
135012483, 0.0229687, 0.0241992, 0.0359912, 0.034248, -9.96168, -0.269102, 0.242192, 0.0152588, 0.38147, 0.0915527, 0, 0
135012493, 0.0229687, 0.0241992, 0.0351709, 0.034248, -9.947, -0.251978, 0.227514, 0.0305176, 0.534058, 0.137329, 0, 0
135012503, 0.0229687, 0.0233789, 0.0351709, 0.0330176, -9.97146, -0.251978, 0.195711, 0.0305176, 0.549316, 0.198364, 0, 0
135012513, 0.0205078, 0.0233789, 0.0376318, 0.0326074, -9.97635, -0.188372, 0.20305, 0.0762939, 0.595093, 0.183105, 0, 0
135012523, 0.0217383, 0.0237891, 0.0372217, 0.0326074, -9.98125, -0.17614, 0.149229, -0.12207, 0.671387, 0.228882, 0, 0
135012533, 0.0217383, 0.0225586, 0.0364014, 0.0368115, -9.97635, -0.132105, 0.144337, -0.0305176, 0.823975, 0.213623, 0, 0
135012543, 0.0225586, 0.0241992, 0.0368115, 0.0368115, -9.97391, -0.144337, 0.0880698, 0.137329, 0.869751, 0.213623, 0, 0
135012563, 0.0205078, 0.0233789, 0.038042, 0.0351709, -9.94944, -0.393868, -0.237299, -0.12207, 1.02234, 0.167847, 0, 0
135012573, 0.0217383, 0.0233789, 0.0364014, 0.0317871, -9.98614, -0.450135, -0.315584, -0.167847, 0.915527, 0.259399, 0, 0
135012583, 0.0217383, 0.0225586, 0.0364014, 0.0321973, -9.99837, -0.300905, -0.296012, -0.0915527, 0.62561, 0.564575, 0, 0
135012593, 0.0217383, 0.0225586, 0.0388623, 0.0351709, -9.97391, -0.171247, -0.34494, -0.12207, 0.564575, 0.656128, 0, 0
135012603, 0.0217383, 0.0233789, 0.0388623, 0.0351709, -9.9788, -0.0929626, -0.357172, -0.259399, 0.564575, 0.427246, 0, 0
135012613, 0.0217383, 0.0225586, 0.038042, 0.0351709, -9.98859, -0.095409, -0.366958, -0.137329, 0.686645, 0.320435, 0, 0
135012623, 0.0205078, 0.0225586, 0.038042, 0.0355811, -9.99103, -0.095409, -0.4061, -0.0762939, 0.442505, 0.457764, 0, 0
135012633, 0.0200977, 0.0217383, 0.0384521, 0.0334277, -9.9788, -0.168801, -0.479491, -0.320435, 0.335693, 0.50354, 0, 0
135012653, 0.0217383, 0.0247119, 0.038042, 0.0359912, -9.98859, -0.418332, -0.215282, -0.106812, 0.152588, 0.473022, 0, 0
135012663, 0.0217383, 0.020918, 0.0359912, 0.0338379, -9.97391, -0.293566, -0.107641, -0.183105, 0.0915527, 0.717163, 0, 0
135012673, 0.0213281, 0.020918, 0.0376318, 0.0351709, -9.99348, -0.34494, -0.0195711, -0.244141, 0.137329, 0.823975, 0, 0
135012683, 0.0241992, 0.0217383, 0.0359912, 0.0351709, -9.94944, -0.376743, -0.0831771, -0.38147, 0.167847, 0.671387, 0, 0
135012693, 0.0200977, 0.0229687, 0.0372217, 0.0334277, -9.99348, -0.188372, 0.00489277, -0.50354, 0.244141, 0.854492, 0, 0
135012703, 0.0213281, 0.0251221, 0.038042, 0.0334277, -9.96657, -0.273995, -0.266656, -0.366211, 0.0762939, 1.0376, 0, 0
135012713, 0.0213281, 0.0233789, 0.038042, 0.0334277, -9.96902, -0.298459, -0.322923, -0.457764, 0.274658, 0.762939, 0, 0
135012733, 0.0225586, 0.0233789, 0.0368115, 0.0347607, -9.99103, -0.286227, -0.445242, -0.701904, -0.0762939, 1.19019, 0, 0
135012743, 0.020918, 0.0229687, 0.038042, 0.0351709, -9.96412, -0.195711, -0.467259, -1.26648, -0.228882, 1.31226, 0, 0
135012753, 0.0237891, 0.0217383, 0.0359912, 0.0351709, -9.99103, -0.11498, -0.440349, -2.0752, -0.274658, 1.0376, 0, 0
135012763, 0.0237891, 0.0225586, 0.0359912, 0.0326074, -9.96902, -0.0709451, -0.413439, -2.10571, -0.335693, 1.08337, 0, 0
135012773, 0.0229687, 0.0225586, 0.0376318, 0.0355811, -10.0033, -0.0807307, -0.362065, -1.38855, -0.473022, 1.17493, 0, 0
135012783, 0.020918, 0.0259424, 0.0338379, 0.0355811, -9.98614, -0.136998, -0.222621, -0.747681, -0.640869, 1.02234, 0, 0
135012793, 0.0213281, 0.0229687, 0.0364014, 0.031377, -9.96412, -0.310691, -0.0831771, -0.915527, -0.595093, 0.869751, 0, 0
135012803, 0.0229687, 0.0241992, 0.0351709, 0.0351709, -9.96657, -0.37919, 0.0146783, -0.991821, -0.564575, 1.06812, 0, 0
135012823, 0.020918, 0.0251221, 0.038042, 0.0351709, -9.96412, -0.200604, -0.237299, -2.36511, -0.411987, 1.46484, 0, 0
135012833, 0.0213281, 0.0251221, 0.0359912, 0.0338379, -9.98125, -0.190818, -0.286227, -3.50952, -0.686645, 1.43433, 0, 0
135012843, 0.0225586, 0.0233789, 0.0364014, 0.0347607, -10.0057, -0.264209, -0.183479, -4.89807, -0.747681, 1.37329, 0, 0
135012853, 0.020918, 0.0237891, 0.0359912, 0.0330176, -9.96657, -0.388975, -0.0782843, -5.79834, -0.747681, 1.5564, 0, 0
135012863, 0.0221484, 0.0233789, 0.0359912, 0.0330176, -9.97391, -0.384082, 0.0709451, -6.16455, -0.808716, 1.7395, 0, 0
135012873, 0.0221484, 0.0251221, 0.0359912, 0.0338379, -9.99348, -0.388975, 0.320476, -6.69861, -0.854492, 1.77002, 0, 0
135012883, 0.0205078, 0.0251221, 0.0364014, 0.0326074, -9.96902, -0.403653, 0.384082, -7.14111, -0.778198, 1.78528, 0, 0
135012903, 0.0205078, 0.0225586, 0.0376318, 0.0347607, -9.95434, -0.418332, 0.435456, -6.63757, -0.183105, 2.13623, 0, 0
135012913, 0.0205078, 0.0225586, 0.0359912, 0.0347607, -9.95678, -0.396314, 0.388975, -5.20325, -0.0457764, 2.2583, 0, 0
135012923, 0.0205078, 0.0229687, 0.0359912, 0.0359912, -9.96168, -0.359618, 0.410993, -3.78418, 0.137329, 2.21252, 0, 0
135012933, 0.0233789, 0.0229687, 0.0384521, 0.0330176, -9.93966, -0.398761, 0.401207, -1.54114, 0.289917, 2.12097, 0, 0
135012943, 0.0233789, 0.0241992, 0.0347607, 0.0355811, -9.97391, -0.308244, 0.359618, 0, 0.473022, 2.36511, 0, 0
135012953, 0.0247119, 0.0251221, 0.0368115, 0.0326074, -9.97146, -0.205496, 0.31803, -0.366211, 0.579834, 2.50244, 0, 0
135012963, 0.0200977, 0.0241992, 0.0359912, 0.0326074, -9.96168, -0.095409, 0.207943, -1.0376, 0.62561, 2.47192, 0, 0
135012973, 0.019585, 0.0225586, 0.0359912, 0.0321973, -9.96412, -0.00489277, 0.163908, -2.15149, 0.701904, 2.44141, 0, 0
135013013, 0.0221484, 0.0217383, 0.0347607, 0.034248, -9.96657, 0.220175, 0.0293566, -6.74438, 0.976562, 2.33459, 0, 0
135013023, 0.0217383, 0.0255322, 0.0347607, 0.034248, -9.98125, 0.266656, 0.0391421, -5.61523, 0.88501, 2.28882, 0, 0
135013033, 0.0217383, 0.020918, 0.0355811, 0.0347607, -9.9788, 0.340047, 0.0122319, -5.84412, 1.05286, 2.18201, 0, 0
135013043, 0.0225586, 0.020918, 0.0364014, 0.034248, -9.97146, 0.391421, 0.0733915, -7.17163, 1.14441, 2.10571, 0, 0
135013053, 0.0213281, 0.0233789, 0.0388623, 0.0355811, -9.98614, 0.384082, 0.151676, -9.30786, 1.02234, 1.93787, 0, 0
135013063, 0.0237891, 0.0247119, 0.0372217, 0.0330176, -9.97391, 0.37185, 0.212835, -12.0087, 1.00708, 1.92261, 0, 0
135013073, 0.0200977, 0.0241992, 0.0372217, 0.0330176, -10.0033, 0.376743, 0.22996, -13.8397, 1.11389, 1.83105, 0, 0
135013093, 0.0200977, 0.0237891, 0.038042, 0.0368115, -9.96412, 0.415885, 0.11498, -13.855, 1.26648, 1.67847, 0, 0
135013103, 0.0200977, 0.0229687, 0.0364014, 0.034248, -9.96412, 0.369404, 0.0415885, -11.6119, 1.5564, 1.54114, 0, 0
135013113, 0.0200977, 0.0217383, 0.038042, 0.0334277, -10.0082, 0.403653, -0.0709451, -9.27734, 1.61743, 1.28174, 0, 0
135013123, 0.0217383, 0.0251221, 0.0368115, 0.0334277, -9.99837, 0.386529, -0.134551, -8.28552, 1.60217, 1.15967, 0, 0
135013133, 0.0217383, 0.0225586, 0.0368115, 0.0317871, -10.0033, 0.440349, -0.0195711, -9.3689, 1.37329, 1.15967, 0, 0
135013143, 0.0200977, 0.0225586, 0.0351709, 0.0338379, -9.96902, 0.464813, 0.0562668, -13.2446, 1.34277, 1.09863, 0, 0
135013153, 0.0217383, 0.0241992, 0.0368115, 0.0321973, -10.0179, 0.577347, 0.11498, -17.5323, 1.40381, 0.915527, 0, 0
135013163, 0.0233789, 0.0237891, 0.0368115, 0.0326074, -9.96168, 0.557776, -0.063606, -20.7825, 1.28174, 0.808716, 0, 0
135013183, 0.0229687, 0.0241992, 0.038042, 0.034248, -9.98125, 0.391421, -0.220175, -19.3939, 1.4801, 0.274658, 0, 0
135013193, 0.0229687, 0.0241992, 0.038042, 0.0359912, -9.95923, 0.283781, -0.264209, -17.0135, 1.5564, 0.274658, 0, 0
135013203, 0.0213281, 0.0263525, 0.0384521, 0.034248, -10.0131, 0.357172, -0.195711, -16.6168, 1.54114, 0.274658, 0, 0
135013213, 0.0213281, 0.0251221, 0.0351709, 0.0321973, -10.0033, 0.366958, -0.132105, -19.1956, 1.37329, 0.106812, 0, 0
135013223, 0.0213281, 0.0241992, 0.0334277, 0.0334277, -10.0375, 0.413439, -0.0538205, -22.8271, 1.08337, -0.12207, 0, 0
135013233, 0.0191748, 0.0221484, 0.0334277, 0.0334277, -10.0644, 0.408546, 0.0782843, -27.3437, 0.915527, -0.320435, 0, 0
135013243, 0.0191748, 0.0267627, 0.038042, 0.0321973, -9.95434, 0.308244, 0.0269102, -31.4026, 0.686645, -0.427246, 0, 0
135013263, 0.0213281, 0.0255322, 0.0397852, 0.0334277, -9.92498, -0.0929626, 0.0562668, -29.602, 1.40381, -0.259399, 0, 0
135013273, 0.0221484, 0.0259424, 0.0368115, 0.0351709, -9.93966, -0.117426, -0.112534, -28.656, 1.86157, -0.0457764, 0, 0
135013283, 0.0213281, 0.0255322, 0.0368115, 0.0351709, -9.96168, 0.00489277, -0.247085, -27.7557, 1.96838, 0.0152588, 0, 0
135013293, 0.0213281, 0.0233789, 0.0372217, 0.0326074, -10.0106, 0.151676, -0.288673, -28.2288, 1.60217, -0.0610352, 0, 0
135013303, 0.0221484, 0.0233789, 0.0364014, 0.0317871, -10.04, 0.205496, -0.124766, -30.4413, 1.40381, -0.259399, 0, 0
135013313, 0.0191748, 0.0225586, 0.0364014, 0.0321973, -9.98614, 0.198157, 0.0562668, -32.8369, 1.14441, -0.366211, 0, 0
135013323, 0.0229687, 0.0251221, 0.0364014, 0.0330176, -9.93721, 0.0171247, 0.0929626, -34.5917, 1.20544, -0.518799, 0, 0
135013333, 0.0217383, 0.0233789, 0.0368115, 0.0330176, -9.8785, -0.205496, -0.00489277, -35.4156, 1.54114, -0.320435, 0, 0
135013353, 0.0205078, 0.0233789, 0.0364014, 0.034248, -9.96902, -0.063606, -0.457474, -33.783, 1.89209, 0.183105, 0, 0
135013363, 0.0213281, 0.0247119, 0.0372217, 0.031377, -9.95678, 0.0929626, -0.707005, -30.1971, 1.83105, 0.0610352, 0, 0
135013373, 0.0221484, 0.0247119, 0.0359912, 0.0347607, -10.0033, 0.242192, -0.707005, -26.3367, 1.7395, -0.152588, 0, 0
135013383, 0.0205078, 0.0267627, 0.0376318, 0.0347607, -10.0179, 0.181032, -0.667863, -23.2849, 1.43433, -0.244141, 0, 0
135013393, 0.0221484, 0.0251221, 0.0376318, 0.0330176, -10.0082, 0.112534, -0.538204, -18.5852, 1.08337, -0.228882, 0, 0
135013403, 0.0221484, 0.0251221, 0.0376318, 0.0321973, -9.94455, 0.0391421, -0.550436, -14.0381, 0.976562, -0.183105, 0, 0
135013413, 0.0200977, 0.0225586, 0.0368115, 0.034248, -9.99103, -0.0489277, -0.364511, -10.6659, 0.823975, -0.305176, 0, 0
135013433, 0.019585, 0.0225586, 0.0401953, 0.0347607, -9.96902, -0.308244, -0.242192, -5.11169, 1.2207, 0.106812, 0, 0
135013443, 0.0179443, 0.0233789, 0.0401953, 0.0347607, -9.98859, -0.210389, -0.195711, -2.65503, 1.19019, 0.213623, 0, 0
135013453, 0.0179443, 0.0229687, 0.0347607, 0.0321973, -9.98125, -0.163908, -0.227514, -1.17493, 0.991821, 0.0610352, 0, 0
135013463, 0.0191748, 0.0229687, 0.038042, 0.0330176, -9.98859, -0.20305, -0.095409, -1.35803, 0.991821, 0.0457764, 0, 0
135013473, 0.020918, 0.0233789, 0.0376318, 0.0330176, -9.95678, -0.357172, -0.100302, -2.68555, 1.297, 0.289917, 0, 0
135013483, 0.0233789, 0.0237891, 0.0388623, 0.0334277, -9.95923, -0.347387, -0.136998, -3.98254, 1.28174, 0.640869, 0, 0
135013493, 0.0187646, 0.0221484, 0.0388623, 0.0334277, -9.96412, -0.163908, -0.462367, -3.9978, 1.44958, 0.686645, 0, 0
135013503, 0.0187646, 0.0237891, 0.0384521, 0.0326074, -9.9152, 0.0611596, -0.907609, -2.22778, 1.31226, 0.62561, 0, 0
135013523, 0.0229687, 0.0233789, 0.0372217, 0.0334277, -10.0522, 0.430564, -1.02259, -1.60217, 0.274658, 0.0152588, 0, 0
135013533, 0.0229687, 0.0255322, 0.0364014, 0.0338379, -10.0106, 0.261763, -0.755933, -5.35583, -0.167847, -0.244141, 0, 0
135013543, 0.0213281, 0.0233789, 0.0359912, 0.0338379, -10.1036, 0.0342494, -0.278888, -11.5967, -0.228882, -0.106812, 0, 0
135013553, 0.0213281, 0.0213281, 0.0359912, 0.0347607, -9.91764, -0.193264, -0.239746, -18.631, 0.0152588, 0.167847, 0, 0
135013563, 0.0213281, 0.0213281, 0.0392725, 0.0347607, -9.99103, -0.298459, -0.173693, -23.0103, 0.305176, 0.335693, 0, 0
135013573, 0.0217383, 0.0233789, 0.0355811, 0.0317871, -9.8785, -0.296012, -0.396314, -25.9247, 0.488281, 0.534058, 0, 0
135013583, 0.019585, 0.0247119, 0.0351709, 0.0338379, -9.92253, -0.144337, -0.601811, -27.5269, 0.656128, 0.762939, 0, 0
135013603, 0.0237891, 0.0237891, 0.038042, 0.0359912, -9.9788, -0.0415885, -1.09353, -26.8249, 0.0610352, 0.671387, 0, 0
135013613, 0.0237891, 0.0237891, 0.0355811, 0.0317871, -10.084, -0.00978554, -0.883145, -26.8249, -0.656128, 0.595093, 0, 0
135013623, 0.0221484, 0.0237891, 0.0388623, 0.0326074, -10.128, -0.0709451, -0.658077, -32.486, -1.43433, 0.595093, 0, 0
135013633, 0.0179443, 0.0255322, 0.0364014, 0.0297363, -10.1085, -0.14189, -0.425671, -34.3781, -2.04468, 0.808716, 0, 0
135013643, 0.020918, 0.0271729, 0.0368115, 0.031377, -10.0131, -0.212835, -0.352279, -30.365, -2.04468, 0.88501, 0, 0
135013653, 0.0213281, 0.0259424, 0.0368115, 0.031377, -9.90541, -0.296012, -0.347387, -17.3187, -1.75476, 0.976562, 0, 0
135013663, 0.0213281, 0.0259424, 0.0359912, 0.0338379, -9.78064, -0.239746, -0.337601, -6.05774, -0.717163, 0.778198, 0, 0
135013673, 0.0200977, 0.0251221, 0.0368115, 0.0326074, -9.93721, -0.17614, -0.457474, 3.32642, -0.0915527, 0.610352, 0, 0
135013693, 0.0229687, 0.0251221, 0.0364014, 0.0326074, -10.0693, 0.247085, -0.364511, 1.70898, -1.43433, 0.900268, 0, 0
135013703, 0.019585, 0.0251221, 0.0364014, 0.0326074, -10.0277, 0.20305, -0.425671, -0.366211, -1.46484, 0.701904, 0, 0
135013713, 0.019585, 0.0221484, 0.0359912, 0.0321973, -9.9788, 0.185925, -0.0538205, -1.297, -0.991821, 0.564575, 0, 0
135013723, 0.020918, 0.0221484, 0.0364014, 0.0334277, -9.97146, 0.134551, 0.100302, -1.51062, -0.869751, 0.686645, 0, 0
135013733, 0.0191748, 0.0255322, 0.038042, 0.0334277, -9.97635, 0.168801, 0.313137, -1.14441, -0.854492, 0.62561, 0, 0
135013743, 0.0205078, 0.0251221, 0.0368115, 0.0330176, -9.96412, 0.0856234, 0.183479, -0.228882, -0.579834, 0.579834, 0, 0
135013753, 0.0229687, 0.0251221, 0.0376318, 0.0330176, -9.96657, 0.095409, 0.0905162, 1.11389, -0.320435, 0.579834, 0, 0
135013763, 0.0179443, 0.0263525, 0.0376318, 0.0334277, -9.96902, 0.11498, -0.0978554, 1.90735, -0.534058, 0.534058, 0, 0
135013803, 0.0217383, 0.0255322, 0.0384521, 0.031377, -9.947, -0.178586, 0.352279, 3.18909, 0.106812, 1.11389, 0, 0
135013813, 0.0213281, 0.0259424, 0.0384521, 0.0317871, -9.95189, 0.215282, -0.00489277, 3.09753, 0.167847, 1.05286, 0, 0
135013823, 0.0213281, 0.0259424, 0.0364014, 0.034248, -9.96412, 0.633614, -0.00489277, 3.98254, 0.213623, 0.717163, 0, 0
135013833, 0.020918, 0.0241992, 0.0364014, 0.034248, -10.0155, 0.802414, -0.557776, 5.4779, 0.198364, 0.0762939, 0, 0
135013843, 0.0217383, 0.0251221, 0.0376318, 0.0334277, -10.0057, 0.660524, -0.584686, 6.83594, -0.0762939, -0.244141, 0, 0
135013853, 0.0213281, 0.0233789, 0.0364014, 0.0338379, -9.99348, 0.543097, -0.555329, 7.67517, -0.442505, -0.0610352, 0, 0
135013863, 0.0217383, 0.0255322, 0.0364014, 0.0338379, -9.99103, 0.442796, -0.543097, 7.30896, -0.549316, -0.0915527, 0, 0
135013883, 0.0217383, 0.0271729, 0.0368115, 0.0355811, -9.98614, 0.410993, -0.215282, 5.49316, -0.564575, -0.350952, 0, 0
135013893, 0.0221484, 0.0263525, 0.0368115, 0.0330176, -9.98369, 0.45992, -0.031803, 4.34875, -0.717163, -0.350952, 0, 0
135013903, 0.0205078, 0.0267627, 0.0368115, 0.0326074, -9.97146, 0.469706, -0.129658, 2.36511, -0.366211, -0.534058, 0, 0
135013913, 0.019585, 0.027583, 0.0368115, 0.0326074, -9.97635, 0.37919, -0.163908, 0.549316, -0.228882, -0.823975, 0, 0
135013923, 0.019585, 0.0263525, 0.034248, 0.0351709, -9.9788, 0.315584, -0.347387, -0.213623, -0.289917, -0.717163, 0, 0
135013933, 0.0200977, 0.0263525, 0.0355811, 0.031377, -10.0008, 0.0929626, -0.435456, 0.0762939, -0.442505, -0.640869, 0, 0
135013943, 0.0175342, 0.0229687, 0.0364014, 0.0326074, -9.99103, 0.00489277, -0.408546, 0.0915527, -0.656128, -0.640869, 0, 0
135013953, 0.0205078, 0.0263525, 0.0364014, 0.0334277, -9.95923, -0.0366958, -0.212835, 0.0305176, -0.717163, -0.595093, 0, 0
135013973, 0.0191748, 0.0241992, 0.0368115, 0.0326074, -9.96412, 0.239746, 0.139444, 0.595093, -0.686645, -0.518799, 0, 0
135013983, 0.0191748, 0.0241992, 0.0368115, 0.0347607, -9.96657, 0.447688, 0.0464813, 0.747681, -0.335693, -0.946045, 0, 0
135013993, 0.0213281, 0.0271729, 0.0355811, 0.0321973, -9.96657, 0.43301, -0.185925, 0.793457, -0.0762939, -1.23596, 0, 0
135014003, 0.0183545, 0.0241992, 0.0364014, 0.0330176, -9.99103, 0.305798, -0.359618, 1.19019, -0.106812, -1.09863, 0, 0
135014013, 0.0221484, 0.0237891, 0.0359912, 0.0330176, -9.94944, 0.20305, -0.540651, 1.52588, -0.396728, -0.946045, 0, 0
135014023, 0.0213281, 0.0241992, 0.0359912, 0.0317871, -9.98614, 0.190818, -0.677648, 0.534058, -0.38147, -1.08337, 0, 0
135014033, 0.0213281, 0.0241992, 0.0372217, 0.0334277, -9.96168, 0.183479, -0.614042, -0.274658, -0.488281, -1.25122, 0, 0
135014053, 0.020918, 0.0263525, 0.0338379, 0.0317871, -10.0155, 0.0489277, -0.435456, 0.38147, -0.991821, -1.17493, 0, 0
135014063, 0.019585, 0.0247119, 0.0376318, 0.0292236, -10.0131, 0.00978554, -0.327815, 0.778198, -1.26648, -1.25122, 0, 0
135014073, 0.0221484, 0.0267627, 0.0376318, 0.0292236, -9.98369, -0.0171247, -0.327815, 2.05994, -1.09863, -1.19019, 0, 0
135014083, 0.0221484, 0.0267627, 0.0364014, 0.0334277, -9.96657, 0.0342494, -0.332708, 4.10461, -0.991821, -1.297, 0, 0
135014093, 0.0213281, 0.0237891, 0.0364014, 0.0321973, -9.99593, 0.0562668, -0.342494, 6.21033, -1.20544, -1.32751, 0, 0
135014103, 0.0213281, 0.0251221, 0.038042, 0.0321973, -9.98614, 0.0929626, -0.308244, 8.71277, -1.40381, -1.38855, 0, 0
135014113, 0.0200977, 0.0263525, 0.038042, 0.034248, -9.96168, 0.100302, -0.0905162, 10.8795, -1.44958, -1.46484, 0, 0
135014123, 0.019585, 0.0251221, 0.038042, 0.034248, -9.97635, 0.0905162, 0.0831771, 12.4969, -1.43433, -1.51062, 0, 0
135014143, 0.020918, 0.0259424, 0.0359912, 0.0334277, -9.96657, -0.031803, 0.205496, 16.7389, -1.14441, -1.63269, 0, 0
135014153, 0.0213281, 0.027583, 0.0364014, 0.0309668, -9.97635, -0.17614, 0.171247, 20.7062, -1.05286, -1.72424, 0, 0
135014163, 0.0183545, 0.0247119, 0.0364014, 0.031377, -9.96657, -0.43301, 0.14189, 27.298, -1.11389, -1.86157, 0, 0
135014173, 0.0200977, 0.0251221, 0.0359912, 0.031377, -9.96902, -0.545544, 0.154122, 34.6222, -0.946045, -1.86157, 0, 0
135014183, 0.0191748, 0.0247119, 0.0359912, 0.0334277, -9.98859, -0.518633, 0.117426, 40.329, -0.961304, -1.63269, 0, 0
135014193, 0.0191748, 0.0247119, 0.0355811, 0.0334277, -9.89562, -0.408546, 0.107641, 43.7469, -0.930786, -1.40381, 0, 0
135014203, 0.0191748, 0.0279932, 0.0368115, 0.031377, -9.99348, -0.354726, 0.124766, 45.0592, -0.808716, -1.43433, 0, 0
135014223, 0.0200977, 0.0255322, 0.0334277, 0.031377, -9.94944, -0.491723, 0.0171247, 45.2576, -0.549316, -1.06812, 0, 0
135014233, 0.020918, 0.0255322, 0.0334277, 0.0334277, -9.94944, -0.410993, 0.0122319, 45.5933, -0.564575, -0.808716, 0, 0
135014243, 0.020918, 0.0255322, 0.0347607, 0.0355811, -9.98614, -0.347387, -0.0122319, 45.9137, -0.62561, -0.732422, 0, 0
135014253, 0.0213281, 0.0263525, 0.038042, 0.0334277, -9.98614, -0.293566, 0.0831771, 45.8374, -0.579834, -0.732422, 0, 0
135014263, 0.019585, 0.0247119, 0.0355811, 0.034248, -9.97391, -0.25687, 0.0929626, 44.7388, -0.457764, -0.62561, 0, 0
135014273, 0.0200977, 0.0247119, 0.0401953, 0.034248, -9.96657, -0.227514, 0.031803, 42.2516, -0.183105, -0.473022, 0, 0
135014283, 0.0213281, 0.0237891, 0.0401953, 0.0334277, -9.98614, -0.210389, -0.0415885, 38.0249, -0.228882, -0.427246, 0, 0
135014293, 0.0213281, 0.0237891, 0.0347607, 0.0351709, -9.96412, -0.154122, -0.0562668, 31.8451, -0.213623, -0.213623, 0, 0
135014313, 0.0205078, 0.0229687, 0.0364014, 0.0330176, -10.0033, 0.0195711, -0.286227, 16.6779, -0.152588, 0.0762939, 0, 0
135014323, 0.0217383, 0.0233789, 0.0359912, 0.0347607, -9.98125, 0.0293566, -0.366958, 11.0321, -0.274658, 0.106812, 0, 0
135014333, 0.0200977, 0.0267627, 0.0359912, 0.0347607, -10.0033, 0.0171247, -0.403653, 8.10242, -0.396728, 0.106812, 0, 0
135014343, 0.0200977, 0.0267627, 0.0376318, 0.0334277, -9.98369, -0.00978554, -0.366958, 7.36999, -0.50354, 0.137329, 0, 0
135014353, 0.0217383, 0.0233789, 0.0359912, 0.0347607, -9.96412, 0.0513741, -0.22996, 7.47681, -0.518799, 0.0457764, 0, 0
135014363, 0.020918, 0.0241992, 0.0355811, 0.0347607, -9.9788, 0.107641, -0.222621, 7.23267, -0.518799, 0.0457764, 0, 0
135014373, 0.0225586, 0.0263525, 0.0368115, 0.0326074, -9.96657, 0.200604, -0.22996, 6.60706, -0.427246, 0.0305176, 0, 0
135014393, 0.0200977, 0.0255322, 0.0351709, 0.034248, -9.94455, 0.266656, -0.212835, 5.53894, -0.518799, 0.0305176, 0, 0
135014403, 0.0200977, 0.0255322, 0.0355811, 0.0347607, -10.0106, 0.244638, -0.124766, 5.46265, -0.396728, -0.12207, 0, 0
135014413, 0.019585, 0.0241992, 0.0338379, 0.0326074, -9.96902, 0.190818, -0.132105, 5.72205, -0.442505, -0.274658, 0, 0
135014423, 0.0221484, 0.0251221, 0.034248, 0.034248, -9.99103, 0.132105, -0.17614, 6.8512, -0.457764, -0.335693, 0, 0
135014433, 0.0225586, 0.0259424, 0.0355811, 0.034248, -9.9788, 0.129658, -0.102748, 8.28552, -0.579834, -0.320435, 0, 0
135014443, 0.020918, 0.0259424, 0.0355811, 0.0330176, -9.98614, 0.17614, -0.0880698, 10.4065, -0.656128, -0.411987, 0, 0
135014453, 0.020918, 0.0259424, 0.0376318, 0.0351709, -9.97146, 0.205496, -0.0538205, 13.4735, -0.595093, -0.442505, 0, 0
135014463, 0.0221484, 0.0247119, 0.0351709, 0.0347607, -9.96657, 0.154122, -0.0782843, 17.4103, -0.488281, -0.656128, 0, 0
135014483, 0.0205078, 0.0247119, 0.0392725, 0.0338379, -9.97391, 0.193264, -0.0538205, 22.583, -0.442505, -0.961304, 0, 0
135014493, 0.0191748, 0.0255322, 0.0392725, 0.0338379, -10.0106, 0.210389, 0.0146783, 22.5983, -0.534058, -0.991821, 0, 0
135014503, 0.0191748, 0.0255322, 0.0376318, 0.0321973, -9.99348, 0.217728, 0.0611596, 21.3928, -0.762939, -1.02234, 0, 0
135014513, 0.0217383, 0.0229687, 0.0364014, 0.034248, -9.96168, 0.234853, 0.0929626, 20.3094, -0.62561, -1.0376, 0, 0
135014523, 0.0221484, 0.0259424, 0.038042, 0.0347607, -9.9788, 0.188372, 0.161461, 19.7906, -0.534058, -1.06812, 0, 0
135014533, 0.0225586, 0.0229687, 0.0397852, 0.0364014, -9.95923, 0.119873, 0.178586, 19.6228, -0.473022, -1.23596, 0, 0
135014543, 0.0200977, 0.0229687, 0.0397852, 0.0364014, -9.9788, 0.107641, 0.220175, 18.5699, -0.320435, -1.14441, 0, 0
135014583, 0.0237891, 0.0229687, 0.0368115, 0.0334277, -9.97146, 0.0880698, 0.127212, 7.33948, 0.305176, -1.08337, 0, 0
135014593, 0.0225586, 0.0247119, 0.0355811, 0.0334277, -9.96902, 0.0709451, 0.136998, 2.65503, 0.183105, -0.991821, 0, 0
135014603, 0.0187646, 0.0233789, 0.0355811, 0.034248, -9.96412, -0.00244638, 0.00244638, -0.717163, 0.259399, -0.991821, 0, 0
135014613, 0.0187646, 0.0233789, 0.0368115, 0.034248, -10.0179, -0.00489277, -0.0366958, 0.38147, 0.228882, -0.915527, 0, 0
135014623, 0.0205078, 0.0233789, 0.0338379, 0.0338379, -9.94211, -0.0244638, -0.0538205, 2.39563, 0.259399, -1.0376, 0, 0
135014633, 0.0213281, 0.0221484, 0.0384521, 0.0338379, -9.94455, -0.00978554, -0.0856234, 5.53894, 0.335693, -1.11389, 0, 0
135014643, 0.020918, 0.0233789, 0.0368115, 0.0338379, -10.0008, -0.0146783, -0.163908, 9.07898, 0.442505, -1.05286, 0, 0
135014653, 0.020918, 0.020918, 0.0368115, 0.0326074, -9.97391, 0.0293566, -0.100302, 10.7422, 0.335693, -1.09863, 0, 0
135014673, 0.0213281, 0.0229687, 0.038042, 0.0372217, -10.0057, -0.00489277, -0.0587132, 8.5907, 0.427246, -1.09863, 0, 0
135014683, 0.0217383, 0.0233789, 0.0351709, 0.0338379, -9.98125, 0, -0.0464813, 7.17163, 0.366211, -1.00708, 0, 0
135014693, 0.0237891, 0.0247119, 0.0347607, 0.0338379, -9.95678, 0.0146783, -0.0660524, 6.37817, 0.335693, -1.08337, 0, 0
135014703, 0.0200977, 0.0237891, 0.0347607, 0.0338379, -9.96657, -0.0244638, -0.0831771, 5.69153, 0.442505, -1.23596, 0, 0
135014713, 0.0200977, 0.0237891, 0.0355811, 0.034248, -9.96412, -0.0513741, -0.0831771, 4.19617, 0.473022, -1.2207, 0, 0
135014723, 0.0217383, 0.0233789, 0.0364014, 0.0334277, -9.98614, -0.107641, -0.112534, 1.43433, 0.442505, -1.12915, 0, 0
135014733, 0.0233789, 0.0241992, 0.0372217, 0.0334277, -9.94455, -0.178586, -0.11498, -1.96838, 0.320435, -1.08337, 0, 0
135014753, 0.0221484, 0.0251221, 0.0351709, 0.0334277, -9.96902, -0.322923, 0.0831771, -1.61743, 0.228882, -0.946045, 0, 0
135014763, 0.0217383, 0.0251221, 0.0372217, 0.0338379, -9.96412, -0.418332, 0.102748, -0.778198, 0.411987, -0.915527, 0, 0
135014773, 0.0217383, 0.0225586, 0.0359912, 0.034248, -9.98125, -0.472152, 0.0293566, 0.991821, 0.564575, -0.869751, 0, 0
135014783, 0.0221484, 0.0233789, 0.0364014, 0.0364014, -9.97635, -0.386529, -0.00244638, 1.2207, 0.534058, -0.656128, 0, 0
135014793, 0.019585, 0.0237891, 0.0397852, 0.0321973, -9.96412, -0.298459, -0.0587132, 0.732422, 0.473022, -0.534058, 0, 0
135014803, 0.0213281, 0.0247119, 0.0397852, 0.0321973, -9.96657, -0.217728, -0.181032, 0.62561, 0.488281, -0.534058, 0, 0
135014813, 0.0213281, 0.0237891, 0.0397852, 0.0355811, -9.98125, -0.136998, -0.273995, 0.778198, 0.62561, -0.518799, 0, 0
135014823, 0.0213281, 0.0237891, 0.0372217, 0.0338379, -9.97635, -0.122319, -0.322923, 0.747681, 0.534058, -0.610352, 0, 0
135014843, 0.0205078, 0.0247119, 0.038042, 0.0334277, -9.98125, -0.144337, -0.22996, 0.854492, 0.259399, -0.488281, 0, 0
135014853, 0.0225586, 0.0237891, 0.0384521, 0.0334277, -9.97146, -0.190818, -0.205496, 0.946045, 0.350952, -0.396728, 0, 0
135014863, 0.020918, 0.0247119, 0.0384521, 0.0359912, -9.97635, -0.22996, -0.303352, 1.61743, 0.320435, -0.488281, 0, 0
135014873, 0.020918, 0.0247119, 0.0368115, 0.0334277, -10.0008, -0.273995, -0.391421, 3.40271, 0.274658, -0.305176, 0, 0
135014883, 0.0221484, 0.0241992, 0.0368115, 0.0351709, -9.97391, -0.249531, -0.391421, 5.78308, 0.198364, -0.335693, 0, 0
135014893, 0.0237891, 0.0267627, 0.0368115, 0.0351709, -9.99593, -0.227514, -0.335155, 8.255, 0.106812, -0.183105, 0, 0
135014903, 0.020918, 0.0255322, 0.038042, 0.0351709, -9.94944, -0.11498, -0.286227, 9.61304, 0.0762939, -0.198364, 0, 0
135014923, 0.0221484, 0.0247119, 0.0364014, 0.0321973, -10.0057, -0.0611596, -0.207943, 7.21741, 0.0762939, -0.228882, 0, 0
135014933, 0.0213281, 0.0241992, 0.0347607, 0.0326074, -9.98369, -0.100302, -0.325369, 5.05066, 0, -0.244141, 0, 0
135014943, 0.0221484, 0.0221484, 0.0372217, 0.0347607, -9.98859, -0.132105, -0.352279, 3.14331, -0.137329, -0.183105, 0, 0
135014953, 0.0217383, 0.0251221, 0.0372217, 0.0326074, -10.0204, -0.119873, -0.325369, 2.02942, -0.274658, -0.228882, 0, 0
135014963, 0.0217383, 0.0225586, 0.0372217, 0.0326074, -9.96168, -0.17614, -0.220175, 1.77002, -0.411987, -0.167847, 0, 0
135014973, 0.020918, 0.0225586, 0.038042, 0.0351709, -9.98614, -0.264209, -0.122319, 1.75476, -0.320435, -0.183105, 0, 0
135014983, 0.020918, 0.0255322, 0.0355811, 0.0359912, -9.97635, -0.264209, -0.0220175, 1.23596, -0.274658, -0.167847, 0, 0
135014993, 0.020918, 0.0237891, 0.0376318, 0.034248, -9.97635, -0.29112, -0.0684988, -0.38147, -0.289917, -0.137329, 0, 0
135015013, 0.020918, 0.0233789, 0.0355811, 0.0326074, -9.97391, -0.322923, -0.11498, -0.0762939, -0.244141, 0.106812, 0, 0
135015023, 0.0221484, 0.0241992, 0.0355811, 0.034248, -9.96657, -0.303352, -0.0831771, 0.0915527, -0.183105, 0.12207, 0, 0
135015033, 0.0221484, 0.0241992, 0.038042, 0.0309668, -9.97146, -0.335155, -0.0146783, 0.610352, -0.305176, 0.198364, 0, 0
135015043, 0.0225586, 0.0247119, 0.0355811, 0.0364014, -9.99348, -0.34494, 0.146783, 1.05286, -0.289917, 0.289917, 0, 0
135015053, 0.0233789, 0.0233789, 0.0351709, 0.0338379, -9.947, -0.435456, 0.254424, 2.48718, -0.335693, 0.289917, 0, 0
135015063, 0.0221484, 0.0241992, 0.0351709, 0.0338379, -9.97635, -0.43301, 0.251978, 4.39453, -0.0457764, 0.320435, 0, 0
135015073, 0.0217383, 0.0255322, 0.0351709, 0.031377, -9.947, -0.271549, 0.222621, 4.80652, 0.335693, 0.488281, 0, 0
135015093, 0.0247119, 0.0225586, 0.0372217, 0.0347607, -9.97635, -0.031803, 0.0562668, 0.976562, 0.228882, 0.579834, 0, 0
135015103, 0.0187646, 0.0241992, 0.0368115, 0.0330176, -9.947, -0.0464813, -0.0782843, -1.66321, 0.259399, 0.62561, 0, 0
135015113, 0.0200977, 0.0221484, 0.0347607, 0.0330176, -10.0253, -0.0660524, -0.112534, -1.25122, 0.289917, 0.579834, 0, 0
135015123, 0.0191748, 0.0247119, 0.0347607, 0.0326074, -9.96902, -0.0489277, -0.127212, -0.534058, 0.274658, 0.62561, 0, 0
135015133, 0.0191748, 0.0247119, 0.0359912, 0.0334277, -9.99348, -0.207943, -0.119873, 0.244141, 0.274658, 0.427246, 0, 0
135015143, 0.0225586, 0.0233789, 0.0364014, 0.0338379, -9.98369, -0.134551, -0.0831771, 1.17493, 0.274658, 0.610352, 0, 0
135015153, 0.0200977, 0.0251221, 0.0368115, 0.0338379, -9.95678, -0.0366958, -0.185925, 0.823975, 0.473022, 0.839233, 0, 0
135015163, 0.0205078, 0.0255322, 0.034248, 0.0364014, -9.97635, 0.193264, -0.384082, 1.83105, 0.335693, 0.839233, 0, 0
135015183, 0.020918, 0.0237891, 0.0364014, 0.0351709, -9.9152, 0.332708, -0.555329, 5.2948, 0.320435, 0.427246, 0, 0
135015193, 0.020918, 0.0225586, 0.0364014, 0.0359912, -10.0179, 0.217728, -0.628721, 4.98962, 0.38147, 0.244141, 0, 0
135015203, 0.0213281, 0.0241992, 0.0372217, 0.0305566, -10.0497, 0.269102, -0.594471, 4.08936, 0.12207, 0.12207, 0, 0
135015213, 0.0217383, 0.0237891, 0.0364014, 0.034248, -10.0033, 0.210389, -0.467259, 3.11279, -0.595093, 0.12207, 0, 0
135015223, 0.020918, 0.0217383, 0.0368115, 0.034248, -9.97146, 0.0342494, -0.450135, 3.0365, -0.88501, -0.0152588, 0, 0
135015233, 0.0221484, 0.0217383, 0.0368115, 0.0364014, -9.96902, 0.0366958, -0.347387, 4.36401, -0.610352, -0.0305176, 0, 0
135015243, 0.0221484, 0.0241992, 0.0384521, 0.0326074, -9.98125, 0.0831771, -0.457474, 6.24084, -0.427246, 0.0610352, 0, 0
135015253, 0.0225586, 0.0241992, 0.0372217, 0.0338379, -9.97391, 0.136998, -0.469706, 7.87353, -0.671387, -0.152588, 0, 0
135015273, 0.0213281, 0.0229687, 0.038042, 0.0351709, -9.99103, -0.0391421, -0.22996, 7.27844, -1.00708, -0.411987, 0, 0
135015283, 0.0217383, 0.0241992, 0.038042, 0.0330176, -9.96412, -0.0782843, -0.0489277, 5.53894, -1.12915, -0.259399, 0, 0
135015293, 0.0217383, 0.0241992, 0.0376318, 0.0355811, -9.98859, -0.0660524, 0.0562668, 5.11169, -1.12915, -0.12207, 0, 0
135015303, 0.0225586, 0.0229687, 0.0372217, 0.0338379, -9.96168, 0.0244638, 0.159015, 6.08826, -1.00708, -0.0305176, 0, 0
135015313, 0.0213281, 0.0237891, 0.0368115, 0.0305566, -9.96168, -0.00733915, 0.0195711, 6.60706, -0.747681, -0.259399, 0, 0
135015323, 0.0233789, 0.0225586, 0.0347607, 0.0305566, -9.99837, 0.0146783, -0.0758379, 7.56836, -0.50354, -0.350952, 0, 0
135015333, 0.0217383, 0.0237891, 0.0347607, 0.034248, -9.97146, 0, -0.095409, 7.47681, -0.717163, -0.350952, 0, 0
135015373, 0.0213281, 0.0229687, 0.0368115, 0.0326074, -9.99103, -0.122319, 0.445242, -0.671387, -0.366211, -0.0762939, 0, 0
135015383, 0.0205078, 0.0259424, 0.0368115, 0.0326074, -9.95189, 0.0464813, 0.384082, 0.274658, -0.0762939, -0.0305176, 0, 0
135015393, 0.0200977, 0.0259424, 0.0351709, 0.034248, -9.99348, -0.00733915, 0.305798, -0.411987, 0.0457764, -0.244141, 0, 0
135015403, 0.0200977, 0.0267627, 0.034248, 0.0326074, -9.98369, -0.0464813, 0.293566, -0.0152588, 0, -0.289917, 0, 0
135015413, 0.019585, 0.0213281, 0.0351709, 0.0347607, -9.93966, -0.00978554, 0.251978, -0.366211, 0.0762939, -0.0457764, 0, 0
135015423, 0.0205078, 0.0221484, 0.038042, 0.0338379, -9.9788, 0.0415885, 0.0905162, -0.762939, 0.305176, -0.0762939, 0, 0
135015433, 0.020918, 0.0241992, 0.0351709, 0.0338379, -9.97391, 0.0366958, -0.0538205, -1.12915, 0.457764, -0.305176, 0, 0
135015443, 0.0213281, 0.0241992, 0.0351709, 0.0330176, -9.99348, -0.0293566, -0.0538205, -1.61743, 0.305176, -0.366211, 0, 0
135015463, 0.0229687, 0.0229687, 0.0355811, 0.0351709, -9.95189, -0.0587132, -0.031803, -0.900268, 0.335693, -0.198364, 0, 0
135015473, 0.0205078, 0.0229687, 0.0368115, 0.0334277, -9.9788, -0.0538205, -0.134551, -0.732422, 0.518799, -0.305176, 0, 0
135015483, 0.0213281, 0.0233789, 0.0364014, 0.0334277, -9.9788, -0.154122, -0.207943, -0.473022, 0.473022, -0.411987, 0, 0
135015493, 0.0221484, 0.0241992, 0.0364014, 0.0334277, -9.98369, -0.249531, -0.249531, -0.228882, 0.289917, -0.274658, 0, 0
135015503, 0.0221484, 0.0241992, 0.0351709, 0.0317871, -10.0008, -0.31803, -0.247085, -0.12207, 0.12207, -0.183105, 0, 0
135015513, 0.0217383, 0.0237891, 0.0359912, 0.031377, -9.93232, -0.327815, -0.222621, -0.183105, 0.12207, -0.12207, 0, 0
135015523, 0.0225586, 0.0241992, 0.0368115, 0.0338379, -10.0008, -0.198157, -0.166354, -0.106812, 0.0610352, -0.0152588, 0, 0
135015543, 0.0213281, 0.0233789, 0.0359912, 0.0359912, -9.95923, -0.0905162, -0.215282, -0.183105, 0.0915527, 0.0457764, 0, 0
135015553, 0.0221484, 0.0233789, 0.0351709, 0.0326074, -9.9788, -0.0880698, -0.251978, -0.213623, 0.137329, 0.0610352, 0, 0
135015563, 0.0221484, 0.0237891, 0.0359912, 0.0338379, -9.97146, -0.0146783, -0.212835, -0.305176, -0.0762939, 0.0152588, 0, 0
135015573, 0.0191748, 0.0237891, 0.0364014, 0.034248, -9.98369, -0.0146783, -0.212835, -0.183105, -0.0152588, -0.0762939, 0, 0
135015583, 0.0213281, 0.0225586, 0.0368115, 0.0321973, -9.99593, 0, -0.188372, -0.0915527, -0.0305176, -0.0762939, 0, 0
135015593, 0.0225586, 0.0247119, 0.0368115, 0.0321973, -9.96412, 0.0122319, -0.195711, -0.183105, -0.12207, 0.0152588, 0, 0
135015603, 0.0205078, 0.0247119, 0.0359912, 0.0330176, -9.97635, 0.0440349, -0.156569, -0.137329, -0.137329, -0.0610352, 0, 0
135015613, 0.0225586, 0.0233789, 0.0368115, 0.0334277, -9.96902, -0.0171247, -0.0195711, -0.274658, -0.0915527, -0.183105, 0, 0
135015663, 0.0225586, 0.0233789, 0.0364014, 0.0355811, -9.98369, -0.0611596, -0.00489277, -0.259399, -0.152588, -0.213623, 0, 0
135015673, 0.0221484, 0.0225586, 0.0368115, 0.0317871, -9.96412, -0.0880698, -0.0122319, -0.213623, -0.0915527, -0.228882, 0, 0
135015683, 0.0205078, 0.0213281, 0.034248, 0.0347607, -9.9788, -0.102748, -0.0269102, -0.137329, 0.106812, -0.167847, 0, 0
135015693, 0.0205078, 0.0251221, 0.0355811, 0.0347607, -9.97635, -0.144337, -0.0220175, -0.167847, 0, -0.198364, 0, 0
135015703, 0.0237891, 0.0237891, 0.0355811, 0.0321973, -9.96412, -0.127212, -0.0171247, -0.244141, -0.0305176, -0.167847, 0, 0
135015713, 0.0237891, 0.0237891, 0.0359912, 0.0326074, -9.95923, -0.151676, -0.0122319, -0.213623, -0.0305176, -0.167847, 0, 0
135015723, 0.0237891, 0.0213281, 0.0368115, 0.0338379, -9.96412, -0.136998, -0.00978554, -0.106812, 0.0762939, -0.183105, 0, 0
135015763, 0.0229687, 0.0229687, 0.038042, 0.0338379, -9.97635, -0.132105, 0.00733915, -0.0915527, 0.228882, -0.106812, 0, 0
135015773, 0.0229687, 0.0233789, 0.0355811, 0.0338379, -9.97146, -0.129658, 0.00978554, -0.0305176, 0.213623, -0.0915527, 0, 0
135015783, 0.0191748, 0.0233789, 0.0338379, 0.0334277, -9.97635, -0.173693, 0.00489277, -0.213623, 0.305176, -0.106812, 0, 0
135015793, 0.0213281, 0.0225586, 0.0364014, 0.0334277, -9.98125, -0.149229, -0.0122319, -0.244141, 0.305176, -0.0610352, 0, 0
135015803, 0.0221484, 0.0221484, 0.0364014, 0.0334277, -9.96657, -0.20305, -0.0269102, -0.259399, 0.350952, -0.0457764, 0, 0
135015813, 0.020918, 0.0221484, 0.0376318, 0.0347607, -9.97146, -0.217728, -0.0391421, -0.0915527, 0.366211, -0.0152588, 0, 0
135015823, 0.020918, 0.0229687, 0.0364014, 0.0334277, -9.98369, -0.222621, -0.0244638, -0.106812, 0.274658, 0.0305176, 0, 0
135015833, 0.0213281, 0.0225586, 0.0351709, 0.0351709, -9.96412, -0.234853, -0.0244638, -0.183105, 0.38147, 0.137329, 0, 0
135015853, 0.020918, 0.0229687, 0.0372217, 0.0330176, -9.97391, -0.234853, -0.0195711, -0.244141, 0.442505, 0.137329, 0, 0
135015863, 0.0200977, 0.0229687, 0.0372217, 0.0338379, -9.97635, -0.242192, -0.0366958, -0.259399, 0.50354, 0.259399, 0, 0
135015873, 0.0200977, 0.0229687, 0.0351709, 0.0338379, -9.96657, -0.215282, -0.0684988, -0.167847, 0.488281, 0.274658, 0, 0
135015883, 0.0229687, 0.0221484, 0.0347607, 0.0330176, -9.98369, -0.239746, -0.0660524, -0.167847, 0.50354, 0.213623, 0, 0
135015893, 0.0217383, 0.0241992, 0.0388623, 0.0317871, -9.96657, -0.269102, -0.031803, -0.106812, 0.488281, 0.335693, 0, 0
135015903, 0.0221484, 0.0225586, 0.0359912, 0.0317871, -9.97146, -0.320476, -0.0758379, 0, 0.595093, 0.457764, 0, 0
135015913, 0.0213281, 0.0225586, 0.0359912, 0.0330176, -9.95923, -0.269102, -0.0880698, -0.106812, 0.579834, 0.427246, 0, 0
135015933, 0.0200977, 0.0233789, 0.0376318, 0.0305566, -9.98125, -0.276441, -0.122319, -0.198364, 0.518799, 0.610352, 0, 0
135015943, 0.0221484, 0.0229687, 0.0372217, 0.034248, -9.98125, -0.276441, -0.151676, -0.274658, 0.610352, 0.671387, 0, 0
135015953, 0.0233789, 0.0237891, 0.0359912, 0.034248, -9.92987, -0.198157, -0.264209, -0.50354, 0.579834, 0.717163, 0, 0
135015963, 0.0229687, 0.0221484, 0.0359912, 0.034248, -10.0179, -0.161461, -0.154122, -0.198364, 0.289917, 0.839233, 0, 0
135015973, 0.0221484, 0.0221484, 0.0359912, 0.0334277, -9.96412, -0.237299, -0.0905162, 0, 0.289917, 0.732422, 0, 0
135015983, 0.0221484, 0.0237891, 0.0359912, 0.0321973, -9.97635, -0.210389, -0.0611596, -0.0762939, 0.549316, 0.778198, 0, 0
135015993, 0.0213281, 0.0213281, 0.0359912, 0.0347607, -9.96412, -0.173693, -0.14189, -0.228882, 0.564575, 0.961304, 0, 0
135016003, 0.0200977, 0.0229687, 0.0372217, 0.0364014, -9.98614, -0.102748, -0.149229, -0.106812, 0.411987, 0.930786, 0, 0
135016023, 0.0213281, 0.0251221, 0.0368115, 0.0347607, -9.96412, -0.132105, -0.0978554, -0.427246, 0.518799, 0.915527, 0, 0
135016033, 0.0213281, 0.020918, 0.0355811, 0.0326074, -9.98125, -0.124766, -0.129658, -0.274658, 0.595093, 0.961304, 0, 0
135016043, 0.0213281, 0.0247119, 0.0368115, 0.0338379, -9.97146, -0.132105, -0.105195, -0.350952, 0.411987, 0.946045, 0, 0
135016053, 0.0187646, 0.0233789, 0.0355811, 0.0338379, -9.96902, -0.146783, -0.117426, -0.473022, 0.38147, 1.00708, 0, 0
135016063, 0.0233789, 0.0229687, 0.0351709, 0.0338379, -9.97391, -0.134551, -0.100302, -0.442505, 0.564575, 1.0376, 0, 0
135016073, 0.0233789, 0.0229687, 0.0351709, 0.0317871, -9.98125, -0.0856234, -0.134551, -0.305176, 0.38147, 1.0376, 0, 0
135016083, 0.0233789, 0.0233789, 0.0359912, 0.0338379, -9.99103, -0.0611596, -0.132105, -0.305176, 0.366211, 1.05286, 0, 0
135016103, 0.0221484, 0.0225586, 0.0372217, 0.0317871, -9.95923, 0.00733915, -0.222621, 0.427246, 0.534058, 0.991821, 0, 0
135016113, 0.0225586, 0.0213281, 0.0376318, 0.0317871, -9.99593, 0.127212, -0.227514, -0.167847, 0.427246, 0.991821, 0, 0
135016123, 0.020918, 0.0213281, 0.0376318, 0.0321973, -9.99837, 0.0782843, -0.278888, -0.228882, 0.320435, 0.946045, 0, 0
135016133, 0.020918, 0.0229687, 0.0372217, 0.0330176, -9.98614, 0.139444, -0.234853, -0.12207, 0.38147, 0.946045, 0, 0
135016143, 0.0205078, 0.0247119, 0.034248, 0.0338379, -9.96902, 0.127212, -0.293566, -0.183105, 0.411987, 0.854492, 0, 0
135016153, 0.0213281, 0.0237891, 0.0368115, 0.034248, -9.99103, 0.190818, -0.296012, -0.228882, 0.259399, 0.762939, 0, 0
135016163, 0.0191748, 0.0237891, 0.0372217, 0.034248, -9.97391, 0.183479, -0.300905, -0.167847, 0.228882, 0.701904, 0, 0
135016173, 0.0213281, 0.0241992, 0.0372217, 0.0305566, -9.97635, 0.222621, -0.281334, -0.12207, 0.198364, 0.686645, 0, 0
135016193, 0.019585, 0.0221484, 0.0351709, 0.0317871, -9.97146, 0.210389, -0.25687, -0.0915527, 0.0762939, 0.473022, 0, 0
135016203, 0.019585, 0.0221484, 0.0359912, 0.0309668, -9.97391, 0.217728, -0.300905, -0.274658, 0.0305176, 0.488281, 0, 0
135016213, 0.020918, 0.0241992, 0.0347607, 0.0309668, -9.98859, 0.283781, -0.249531, -0.152588, -0.0152588, 0.411987, 0, 0
135016223, 0.0221484, 0.0233789, 0.0347607, 0.0334277, -9.98369, 0.29112, -0.22996, -0.0305176, -0.0457764, 0.228882, 0, 0
135016233, 0.0213281, 0.0233789, 0.0359912, 0.0338379, -9.9788, 0.313137, -0.171247, -0.106812, -0.0152588, 0.167847, 0, 0
135016243, 0.0213281, 0.0259424, 0.0347607, 0.0338379, -9.98125, 0.352279, -0.225067, -0.137329, 0.0610352, 0.0610352, 0, 0
135016253, 0.0213281, 0.0225586, 0.0364014, 0.031377, -9.98859, 0.374297, -0.215282, -0.0610352, 0.0152588, -0.0610352, 0, 0
135016273, 0.0229687, 0.0205078, 0.0359912, 0.034248, -9.98859, 0.332708, -0.29112, -0.0457764, -0.0762939, -0.335693, 0, 0
135016283, 0.0213281, 0.0205078, 0.0359912, 0.0326074, -9.98859, 0.247085, -0.247085, -0.12207, -0.167847, -0.320435, 0, 0
135016293, 0.0213281, 0.0233789, 0.0364014, 0.0317871, -9.97146, 0.200604, -0.220175, -0.0610352, -0.183105, -0.289917, 0, 0
135016303, 0.0200977, 0.0233789, 0.0351709, 0.0334277, -9.98614, 0.200604, -0.254424, -0.0762939, -0.274658, -0.534058, 0, 0
135016313, 0.0217383, 0.0229687, 0.0384521, 0.0330176, -9.98125, 0.163908, -0.215282, -0.198364, -0.244141, -0.50354, 0, 0
135016323, 0.0205078, 0.0241992, 0.0355811, 0.0330176, -9.97635, 0.127212, -0.207943, -0.0762939, -0.305176, -0.50354, 0, 0
135016333, 0.0221484, 0.0241992, 0.0355811, 0.034248, -9.97391, 0.14189, -0.222621, -0.152588, -0.228882, -0.50354, 0, 0
135016343, 0.0217383, 0.0229687, 0.0351709, 0.0334277, -9.9788, 0.156569, -0.283781, -0.137329, -0.228882, -0.686645, 0, 0
135016363, 0.0217383, 0.0225586, 0.034248, 0.0334277, -9.97635, 0.14189, -0.330262, -0.12207, -0.534058, -0.793457, 0, 0
135016373, 0.0233789, 0.0241992, 0.0359912, 0.0334277, -9.98859, 0.0611596, -0.327815, -0.106812, -0.579834, -0.732422, 0, 0
135016383, 0.0205078, 0.0225586, 0.0359912, 0.0351709, -9.98859, 0.0244638, -0.320476, -0.0610352, -0.610352, -0.823975, 0, 0
135016393, 0.0217383, 0.0225586, 0.0364014, 0.0355811, -9.96168, -0.0293566, -0.342494, -0.0762939, -0.62561, -0.839233, 0, 0
135016403, 0.0217383, 0.0237891, 0.0351709, 0.0334277, -9.99593, -0.0220175, -0.293566, -0.152588, -0.808716, -0.762939, 0, 0
135016413, 0.0229687, 0.0233789, 0.038042, 0.0351709, -9.97146, -0.0611596, -0.310691, -0.0610352, -0.762939, -0.762939, 0, 0
135016423, 0.0205078, 0.0255322, 0.0347607, 0.0351709, -9.98859, 0.0195711, -0.244638, -0.167847, -0.778198, -0.793457, 0, 0
135016443, 0.0237891, 0.0233789, 0.0326074, 0.0326074, -9.96168, 0.107641, -0.190818, -0.0762939, -0.793457, -0.915527, 0, 0
135016453, 0.0237891, 0.0225586, 0.0355811, 0.034248, -9.99593, 0.129658, -0.156569, -0.167847, -0.900268, -0.946045, 0, 0
135016463, 0.0217383, 0.0237891, 0.0364014, 0.0330176, -9.98614, 0.127212, -0.149229, -0.0762939, -0.900268, -0.946045, 0, 0
135016473, 0.0221484, 0.0229687, 0.0359912, 0.0334277, -9.97635, 0.163908, -0.0464813, -0.12207, -0.869751, -1.00708, 0, 0
135016483, 0.0205078, 0.0255322, 0.0359912, 0.0334277, -9.97635, 0.163908, 0.0195711, -0.228882, -0.793457, -1.05286, 0, 0
135016493, 0.020918, 0.0255322, 0.0338379, 0.034248, -9.95678, 0.161461, 0.0684988, -0.259399, -0.595093, -1.17493, 0, 0
135016503, 0.020918, 0.0241992, 0.0372217, 0.0334277, -9.9788, 0.156569, 0.0513741, -0.0762939, -0.62561, -1.23596, 0, 0
135016513, 0.0225586, 0.0213281, 0.0359912, 0.0326074, -9.98369, 0.127212, 0.00489277, -0.0610352, -0.640869, -1.26648, 0, 0
135016553, 0.0225586, 0.0225586, 0.0372217, 0.0334277, -9.9788, -0.00489277, 0.095409, -0.0762939, -0.518799, -1.37329, 0, 0
135016563, 0.0225586, 0.0213281, 0.0355811, 0.0351709, -9.98369, -0.0391421, 0.14189, -0.167847, -0.457764, -1.35803, 0, 0
135016573, 0.0225586, 0.0217383, 0.034248, 0.0351709, -9.9788, -0.0660524, 0.20305, -0.167847, -0.38147, -1.28174, 0, 0
135016583, 0.0217383, 0.0221484, 0.0359912, 0.0351709, -9.97635, -0.112534, 0.239746, -0.259399, -0.213623, -1.297, 0, 0
135016593, 0.0225586, 0.0221484, 0.0359912, 0.0317871, -9.97391, -0.144337, 0.286227, -0.411987, -0.0305176, -1.297, 0, 0
135016603, 0.0229687, 0.0213281, 0.0372217, 0.0368115, -9.96657, -0.207943, 0.259317, -0.38147, -0.0305176, -1.26648, 0, 0
135016613, 0.0229687, 0.0247119, 0.0351709, 0.0321973, -9.96168, -0.220175, 0.251978, -0.38147, 0.0457764, -1.17493, 0, 0
135016633, 0.0217383, 0.0241992, 0.0368115, 0.0372217, -9.98859, -0.305798, 0.232406, -0.183105, 0.259399, -1.09863, 0, 0
135016643, 0.0200977, 0.0213281, 0.0368115, 0.0338379, -9.94944, -0.313137, 0.222621, -0.183105, 0.457764, -0.976562, 0, 0
135016653, 0.0221484, 0.0213281, 0.0351709, 0.034248, -9.96902, -0.315584, 0.217728, -0.259399, 0.457764, -0.900268, 0, 0
135016663, 0.0221484, 0.0217383, 0.0359912, 0.0351709, -9.98369, -0.330262, 0.159015, -0.167847, 0.473022, -0.88501, 0, 0
135016673, 0.0225586, 0.0217383, 0.0364014, 0.0359912, -9.95189, -0.322923, 0.136998, -0.167847, 0.640869, -0.823975, 0, 0
135016683, 0.0200977, 0.0221484, 0.0355811, 0.0321973, -9.96657, -0.315584, 0.0856234, -0.106812, 0.640869, -0.701904, 0, 0
135016693, 0.0217383, 0.0241992, 0.0355811, 0.0321973, -9.96657, -0.293566, 0.0269102, -0.106812, 0.671387, -0.656128, 0, 0
135016703, 0.0217383, 0.0241992, 0.0355811, 0.034248, -9.98125, -0.296012, 0.00978554, -0.0915527, 0.579834, -0.656128, 0, 0
135016723, 0.0233789, 0.0229687, 0.0368115, 0.034248, -9.96657, -0.305798, -0.0660524, -0.274658, 0.823975, -0.549316, 0, 0
135016733, 0.0191748, 0.0225586, 0.0338379, 0.0309668, -9.97146, -0.271549, -0.0660524, -0.183105, 0.778198, -0.488281, 0, 0
135016743, 0.0229687, 0.0229687, 0.0368115, 0.0309668, -9.99593, -0.286227, -0.119873, -0.289917, 0.747681, -0.473022, 0, 0
135016753, 0.0200977, 0.0229687, 0.0368115, 0.034248, -9.96902, -0.296012, -0.119873, -0.350952, 0.747681, -0.366211, 0, 0
135016763, 0.020918, 0.0217383, 0.0368115, 0.0364014, -9.98369, -0.271549, -0.146783, -0.183105, 0.778198, -0.350952, 0, 0
135016773, 0.020918, 0.0237891, 0.0372217, 0.0355811, -9.96657, -0.254424, -0.183479, -0.0915527, 0.732422, -0.320435, 0, 0
135016783, 0.0200977, 0.020918, 0.0355811, 0.0330176, -9.98859, -0.239746, -0.190818, -0.259399, 0.717163, -0.289917, 0, 0
135016803, 0.020918, 0.0233789, 0.0359912, 0.0317871, -9.9788, -0.22996, -0.259317, -0.167847, 0.717163, -0.259399, 0, 0
135016813, 0.0213281, 0.0205078, 0.034248, 0.0338379, -9.97146, -0.239746, -0.293566, -0.12207, 0.732422, -0.152588, 0, 0
135016823, 0.0213281, 0.0237891, 0.0364014, 0.0347607, -9.97146, -0.247085, -0.273995, -0.12207, 0.534058, -0.106812, 0, 0
135016833, 0.0225586, 0.0247119, 0.0384521, 0.0317871, -9.96657, -0.249531, -0.308244, -0.0152588, 0.50354, 0, 0, 0
135016843, 0.0221484, 0.0229687, 0.0355811, 0.0317871, -9.96902, -0.237299, -0.330262, 0, 0.411987, -0.0457764, 0, 0
135016853, 0.0191748, 0.0251221, 0.0355811, 0.0317871, -9.97146, -0.212835, -0.300905, -0.0762939, 0.38147, -0.0305176, 0, 0
135016863, 0.020918, 0.0251221, 0.0347607, 0.0317871, -9.97391, -0.17614, -0.251978, -0.137329, 0.366211, 0.0152588, 0, 0
135016873, 0.020918, 0.020918, 0.0359912, 0.0338379, -9.97146, -0.171247, -0.261763, -0.152588, 0.350952, 0.0305176, 0, 0
135016893, 0.0217383, 0.0247119, 0.0364014, 0.0326074, -9.9788, -0.144337, -0.286227, -0.0305176, 0.305176, 0.0305176, 0, 0
135016903, 0.0217383, 0.0237891, 0.0364014, 0.0326074, -9.98125, -0.144337, -0.296012, -0.198364, 0.12207, 0.0457764, 0, 0
135016913, 0.0205078, 0.0237891, 0.0368115, 0.034248, -9.98369, -0.151676, -0.305798, -0.12207, 0.198364, 0.0915527, 0, 0
135016923, 0.0205078, 0.0247119, 0.0359912, 0.0347607, -9.98125, -0.154122, -0.286227, -0.0457764, 0.167847, 0.137329, 0, 0
135016933, 0.0229687, 0.0221484, 0.0368115, 0.0330176, -9.96168, -0.146783, -0.303352, 0, 0.0610352, 0.106812, 0, 0
135016943, 0.0191748, 0.0217383, 0.0351709, 0.0351709, -9.98859, -0.11498, -0.281334, -0.0762939, 0.0762939, 0.106812, 0, 0
135016953, 0.0205078, 0.0233789, 0.0351709, 0.0351709, -9.98125, -0.156569, -0.269102, -0.12207, 0.0305176, 0.0915527, 0, 0
135016973, 0.0225586, 0.0221484, 0.0355811, 0.0326074, -9.98614, -0.129658, -0.234853, -0.0457764, -0.0305176, 0.167847, 0, 0
135016983, 0.0225586, 0.0217383, 0.0355811, 0.034248, -9.99837, -0.129658, -0.237299, -0.0915527, -0.198364, 0.106812, 0, 0
135016993, 0.0205078, 0.0233789, 0.0364014, 0.0326074, -9.98859, -0.134551, -0.234853, -0.12207, -0.198364, 0.0915527, 0, 0
135017003, 0.0233789, 0.0263525, 0.0368115, 0.0326074, -9.98859, -0.163908, -0.205496, -0.106812, -0.167847, 0.137329, 0, 0
135017013, 0.0221484, 0.0263525, 0.0368115, 0.0338379, -9.96657, -0.183479, -0.183479, -0.167847, -0.213623, 0.152588, 0, 0
135017023, 0.019585, 0.0237891, 0.0355811, 0.0351709, -9.96902, -0.193264, -0.171247, -0.137329, -0.198364, 0.167847, 0, 0
135017033, 0.019585, 0.0241992, 0.0351709, 0.0334277, -9.98125, -0.195711, -0.154122, -0.0762939, -0.167847, 0.183105, 0, 0
135017043, 0.020918, 0.0221484, 0.0355811, 0.0330176, -9.96657, -0.198157, -0.107641, -0.0610352, -0.213623, 0.259399, 0, 0
135017063, 0.020918, 0.0259424, 0.0359912, 0.0347607, -9.95678, -0.190818, -0.0880698, -0.12207, -0.183105, 0.274658, 0, 0
135017073, 0.019585, 0.0259424, 0.0376318, 0.0355811, -9.97146, -0.200604, -0.0611596, 0, -0.183105, 0.274658, 0, 0
135017083, 0.019585, 0.0241992, 0.0368115, 0.0347607, -9.94944, -0.195711, -0.0562668, -0.0305176, -0.167847, 0.350952, 0, 0
135017093, 0.0200977, 0.0247119, 0.0351709, 0.0347607, -9.9788, -0.210389, -0.0489277, -0.0762939, -0.12207, 0.442505, 0, 0
135017103, 0.0241992, 0.0229687, 0.0355811, 0.0330176, -9.98614, -0.227514, -0.0146783, -0.152588, -0.0915527, 0.38147, 0, 0
135017113, 0.020918, 0.0233789, 0.0355811, 0.0330176, -9.96657, -0.215282, -0.0244638, -0.137329, -0.0915527, 0.411987, 0, 0
135017123, 0.0213281, 0.0233789, 0.0347607, 0.0347607, -9.97635, -0.215282, -0.00733915, -0.0915527, -0.0762939, 0.50354, 0, 0
135017143, 0.0217383, 0.0205078, 0.0372217, 0.0317871, -9.96412, -0.190818, 0.00978554, -0.0762939, 0.0457764, 0.579834, 0, 0
135017153, 0.0225586, 0.0225586, 0.0355811, 0.0359912, -9.96412, -0.207943, 0.00244638, -0.137329, 0.0305176, 0.610352, 0, 0
135017163, 0.0217383, 0.0233789, 0.0359912, 0.0359912, -9.96657, -0.185925, -0.00733915, -0.183105, 0.12207, 0.656128, 0, 0
135017173, 0.0217383, 0.0233789, 0.0359912, 0.0334277, -9.96657, -0.185925, -0.00244638, -0.0915527, 0.0762939, 0.564575, 0, 0
135017183, 0.0217383, 0.0233789, 0.0355811, 0.0338379, -9.97146, -0.183479, -0.00733915, -0.0762939, 0.198364, 0.62561, 0, 0
135017193, 0.0217383, 0.0251221, 0.0355811, 0.0347607, -9.96902, -0.205496, -0.0293566, -0.12207, 0.198364, 0.686645, 0, 0
135017203, 0.0225586, 0.0241992, 0.0372217, 0.0321973, -9.96902, -0.217728, -0.0513741, -0.12207, 0.198364, 0.762939, 0, 0
135017213, 0.0213281, 0.0221484, 0.0359912, 0.0321973, -9.96902, -0.225067, -0.0269102, -0.106812, 0.259399, 0.762939, 0, 0
135017233, 0.0205078, 0.0237891, 0.038042, 0.0355811, -9.97391, -0.195711, -0.063606, 0, 0.228882, 0.839233, 0, 0
