timestamp, current1, current2, current3, current4, accel x, accel y, accel z, degrees x, degrees y, degrees z, baro temp, baro pressure
3333, 0.00246094, 0.00666504, 0.031377, 0.0116895, -0.0415885, 0.0587132, 9.80511, -0.0762939, -0.0305176, 0.0305176, 25.7179, 91090.2
3343, 0.00246094, 0.010459, 0.031377, 0.0116895, -0.129658, 0.0611596, 9.83691, -0.12207, 0.0915527, 0.0457764, 25.7173, 91090.1
3353, 0.00123047, 0.00830566, 0.031377, 0.0141504, -0.0684988, 0.0611596, 9.81489, -0.0915527, -0.167847, 0.0152588, 25.7127, 91090.2
3363, -0.000410156, 0.00830566, 0.0305566, 0.0112793, -0.0660524, 0.0929626, 9.84425, -0.0915527, -0.167847, -0.0152588, 25.7206, 91090.5
3373, 0.00164062, 0.00543457, 0.0330176, 0.0112793, 0.0171247, 0.0538205, 9.73172, -0.0762939, 0.0762939, 0.0610352, 25.716, 91090.8
3383, 0.000820312, 0.00871582, 0.0321973, 0.0141504, -0.149229, 0.0880698, 9.91764, -0.0762939, 0.12207, 0.0305176, 25.7155, 91090.4
3393, 0.000820312, 0.00871582, 0.0334277, 0.0141504, 0.0146783, 0.122319, 9.72438, -0.0610352, -0.38147, 0.0305176, 25.7226, 91090.6
3403, 0.00246094, 0.00410156, 0.0326074, 0.00912598, -0.171247, 0.0660524, 9.92498, -0.0762939, 0.534058, 0, 25.7188, 91090.5
3423, 0.00123047, 0.0100488, 0.034248, 0.010459, -0.102748, 0.0220175, 9.83202, -0.183105, 0.762939, 0.0152588, 25.711, 91091
3433, 0.00246094, 0.00584473, 0.0297363, 0.0137402, -0.100302, 0.0342494, 9.85648, -0.106812, -0.762939, 0.0152588, 25.7105, 91090.2
3443, 0.00246094, 0.00666504, 0.0317871, 0.0137402, 0.031803, 0.0415885, 9.71214, 0, 0.564575, 0.0152588, 25.7289, 91090.8
3453, 0.00205078, 0.0070752, 0.0317871, 0.0125098, -0.163908, 0.0342494, 9.90541, -0.0610352, -0.442505, -0.0305176, 25.7207, 91089.6
3463, -0.000820312, 0.0070752, 0.0317871, 0.0116895, 0.0415885, 0.0733915, 9.70236, 0.0305176, 0.12207, -0.0152588, 25.718, 91090.3
3473, -0.000820312, 0.0070752, 0.0305566, 0.0137402, -0.144337, 0.0856234, 9.92498, -0.12207, -0.0305176, 0, 25.7185, 91090.8
3483, 0.00451172, 0.00625488, 0.0321973, 0.0116895, -0.00978554, 0.0880698, 9.76107, -0.0152588, -0.12207, -0.0305176, 25.7179, 91089.9
3503, 0.00369141, 0.00871582, 0.0326074, 0.0120996, -0.0489277, 0.0538205, 9.75373, -0.137329, -0.0305176, 0.0762939, 25.7256, 91090.3
3513, 0.00164062, 0.00871582, 0.0326074, 0.0112793, -0.102748, 0.0733915, 9.89073, -0.12207, -0.0152588, -0.0152588, 25.7286, 91090.6
3523, 0.00287109, 0.00666504, 0.0309668, 0.0137402, -0.00978554, 0.0611596, 9.78554, -0.0915527, -0.0152588, 0, 25.7064, 91090.2
3533, 0.00328125, 0.00410156, 0.0305566, 0.0112793, -0.0660524, 0.0758379, 9.83936, -0.0762939, -0.137329, -0.0152588, 25.7096, 91090.7
3543, 0.00502441, 0.0070752, 0.0317871, 0.0125098, -0.0733915, 0.0587132, 9.76352, -0.0762939, 0.137329, 0.0305176, 25.7188, 91090.3
3553, 0.00502441, 0.00789551, 0.0321973, 0.0125098, -0.14189, 0.0831771, 9.87361, -0.0915527, -0.198364, -0.0152588, 25.7168, 91090.2
3563, 0.000820312, 0.00666504, 0.0321973, 0.0100488, -0.00244638, 0.0905162, 9.76841, -0.0915527, 0.0457764, 0, 25.7212, 91090.3
3573, 0.00164062, 0.00666504, 0.0338379, 0.0112793, -0.117426, 0.0880698, 9.88339, -0.106812, 0.137329, -0.0305176, 25.7191, 91090.5
3593, 0.000820312, 0.00584473, 0.0317871, 0.00953613, -0.0831771, 0.0513741, 9.83691, -0.0610352, 0.152588, -0.0762939, 25.726, 91090.1
3603, 0.000820312, 0.00625488, 0.0317871, 0.00953613, -0.0464813, 0.0489277, 9.79532, -0.12207, -0.305176, -0.0152588, 25.7145, 91089.9
3613, 0.00246094, 0.00830566, 0.0309668, 0.0125098, -0.0856234, 0.0489277, 9.81, -0.137329, 0.335693, -0.0152588, 25.7261, 91090.4
3623, -0.00123047, 0.00830566, 0.0309668, 0.0133301, -0.105195, 0.0538205, 9.84914, -0.0305176, -0.259399, -0.0305176, 25.7135, 91090.3
3633, 0.000410156, 0.00625488, 0.0301465, 0.0116895, -0.0391421, 0.0660524, 9.79777, -0.0457764, 0.137329, 0.0457764, 25.7228, 91090.6
3643, 0, 0.00748535, 0.031377, 0.0129199, -0.110087, 0.063606, 9.83446, -0.0457764, -0.244141, -0.0762939, 25.7154, 91089.6
3653, 0, 0.00625488, 0.034248, 0.0129199, -0.0171247, 0.110087, 9.79777, -0.106812, 0.0457764, 0.0152588, 25.7131, 91090.1
3673, 0.000820312, 0.00666504, 0.0292236, 0.0125098, -0.0611596, 0.0562668, 9.80266, -0.0610352, 0.198364, -0.0305176, 25.7208, 91090.5
3683, 0.00205078, 0.0070752, 0.0326074, 0.0133301, -0.0880698, 0.0758379, 9.82223, -0.0305176, -0.152588, -0.0152588, 25.7182, 91090.1
3693, 0, 0.0070752, 0.031377, 0.0120996, -0.100302, 0.0587132, 9.81734, -0.0915527, 0.0915527, -0.0152588, 25.7134, 91090.6
3703, 0, 0.00625488, 0.0309668, 0.0112793, -0.0660524, 0.0587132, 9.82468, -0.0762939, -0.38147, 0.0152588, 25.7144, 91090.2
3713, 0.00164062, 0.0070752, 0.031377, 0.0112793, -0.0269102, 0.0464813, 9.78309, -0.0915527, 0.274658, -0.0305176, 25.7177, 91090.5
3723, 0.00205078, 0.0070752, 0.031377, 0.0112793, -0.112534, 0.0611596, 9.89073, -0.0762939, -0.152588, 0, 25.7171, 91090.6
3733, 0.000410156, 0.00748535, 0.0317871, 0.0137402, -0.0244638, 0.0684988, 9.74639, -0.0762939, 0.12207, 0.0305176, 25.7128, 91090.5
3743, 0.00246094, 0.00871582, 0.0347607, 0.0125098, -0.127212, 0.0733915, 9.87605, -0.0762939, -0.12207, 0, 25.7108, 91090.4
3763, 0.00246094, 0.00584473, 0.031377, 0.0129199, -0.146783, 0.0684988, 9.90296, 0, -0.0915527, 0.0152588, 25.7165, 91090.4
3773, 0.000410156, 0.00666504, 0.031377, 0.0112793, 0.00978554, 0.0709451, 9.71704, -0.0915527, -0.0457764, 0.0305176, 25.7242, 91091
3783, 0.000410156, 0.00666504, 0.0330176, 0.0116895, -0.144337, 0.0513741, 9.90052, -0.0305176, 0.106812, 0.0152588, 25.7255, 91090.2
3793, 0.00123047, 0.00871582, 0.034248, 0.0137402, 0, 0.0758379, 9.75129, -0.0915527, -0.198364, 0, 25.7169, 91089.9
3803, 0.000820312, 0.00451172, 0.0309668, 0.0112793, -0.166354, 0.0831771, 9.89807, -0.0305176, 0.183105, -0.0152588, 25.724, 91089.9
3813, 0.000820312, 0.0070752, 0.0321973, 0.0112793, -0.0122319, 0.0880698, 9.75129, -0.0915527, -0.259399, 0.0305176, 25.7192, 91090.4
3823, 0.00328125, 0.00584473, 0.0334277, 0.0116895, -0.102748, 0.0758379, 9.88584, -0.0915527, 0.228882, -0.0610352, 25.7239, 91089.8
3833, 0.00410156, 0.00584473, 0.0334277, 0.0141504, -0.0220175, 0.0880698, 9.75618, -0.152588, -0.305176, 0.0305176, 25.7191, 91090.6
3853, 0.00205078, 0.00625488, 0.0338379, 0.0112793, -0.0660524, 0.0758379, 9.79532, -0.12207, -0.259399, -0.0457764, 25.7248, 91090.1
3863, 0.00205078, 0.00451172, 0.0317871, 0.0112793, -0.0782843, 0.063606, 9.82223, -0.12207, 0.198364, 0, 25.72, 91089.9
3873, 0.00205078, 0.00666504, 0.0305566, 0.0137402, -0.0513741, 0.0709451, 9.79777, -0.0457764, -0.335693, 0.0152588, 25.7184, 91089.6
3883, 0.00205078, 0.00666504, 0.0305566, 0.0108691, -0.0366958, 0.0684988, 9.80021, -0.0915527, 0.259399, -0.0457764, 25.7185, 91089.7
3893, 0.00246094, 0.0070752, 0.0321973, 0.0112793, -0.0709451, 0.0587132, 9.83936, 0.0152588, -0.137329, 0.0152588, 25.7052, 91089.8
3903, 0.00205078, 0.0070752, 0.0297363, 0.0133301, -0.0831771, 0.0831771, 9.82223, -0.0762939, 0.274658, 0, 25.7102, 91090.1
3913, 0.00205078, 0.00625488, 0.0334277, 0.0116895, -0.105195, 0.0905162, 9.84425, -0.0457764, -0.320435, 0.0305176, 25.7243, 91089.8
3933, 0.00123047, 0.00912598, 0.031377, 0.0141504, -0.0611596, 0.0831771, 9.83691, -0.106812, -0.167847, -0.0610352, 25.7275, 91090
3943, 0.000820312, 0.00625488, 0.0305566, 0.0125098, -0.0391421, 0.0513741, 9.79288, -0.106812, 0.0305176, 0.0457764, 25.7224, 91089.8
3953, -0.000410156, 0.00748535, 0.0321973, 0.0120996, -0.0929626, 0.0684988, 9.8418, -0.106812, -0.0610352, 0.0305176, 25.7215, 91090.7
3963, -0.00123047, 0.00666504, 0.0305566, 0.010459, -0.0342494, 0.0782843, 9.81245, 0.0305176, -0.0457764, 0, 25.7278, 91090.2
3973, -0.00123047, 0.00625488, 0.0330176, 0.010459, -0.0978554, 0.095409, 9.85648, -0.0457764, -0.0762939, -0.0457764, 25.7188, 91090.8
3983, 0.00164062, 0.00625488, 0.0330176, 0.0141504, -0.0366958, 0.0611596, 9.78064, -0.167847, 0.0457764, 0, 25.7275, 91090
3993, 0, 0.00625488, 0.0292236, 0.0112793, -0.112534, 0.0415885, 9.85159, -0.137329, -0.0152588, 0, 25.7325, 91090.1
4003, 0.00246094, 0.00584473, 0.0309668, 0.0137402, -0.0244638, 0.063606, 9.75618, -0.106812, -0.0305176, -0.0457764, 25.7133, 91090.3
4043, 0.00246094, 0.00789551, 0.0317871, 0.0116895, -0.0611596, 0.0660524, 9.80021, -0.0915527, 0.0152588, -0.0305176, 25.7198, 91090.7
4053, 0.00205078, 0.00584473, 0.0309668, 0.0129199, -0.0831771, 0.0758379, 9.83691, 0, 0.0915527, -0.0305176, 25.7185, 91090.5
4063, 0.000820312, 0.00871582, 0.0305566, 0.0125098, -0.0513741, 0.0807307, 9.81489, -0.0457764, -0.106812, 0, 25.7094, 91090.2
4073, 0.000820312, 0.00584473, 0.0305566, 0.0125098, -0.0831771, 0.0831771, 9.82957, -0.106812, 0.106812, 0.0152588, 25.7253, 91090
4083, 0.000820312, 0.00789551, 0.0321973, 0.0129199, -0.063606, 0.0709451, 9.81734, -0.0762939, -0.137329, 0.0152588, 25.7284, 91090.5
4093, 0.000410156, 0.00789551, 0.0321973, 0.0116895, -0.0782843, 0.0587132, 9.8418, -0.0457764, 0.0610352, 0, 25.7356, 91090.5
4103, 0.00123047, 0.00502441, 0.0326074, 0.0116895, -0.0562668, 0.0880698, 9.80021, -0.106812, -0.12207, -0.0457764, 25.7141, 91090.6
4123, 0.00123047, 0.0070752, 0.0334277, 0.0108691, -0.0684988, 0.107641, 9.82712, -0.0915527, -0.106812, 0.0305176, 25.7215, 91090.6
4133, 0.00123047, 0.00584473, 0.0309668, 0.0108691, -0.0464813, 0.102748, 9.81734, -0.0610352, -0.106812, 0.0305176, 25.7145, 91090.6
4143, -0.000820312, 0.00584473, 0.0309668, 0.0112793, -0.0758379, 0.0758379, 9.8418, -0.12207, -0.0305176, 0.0305176, 25.7225, 91090.6
4153, 0, 0.00666504, 0.031377, 0.0129199, -0.0684988, 0.0684988, 9.79532, -0.12207, -0.106812, -0.0305176, 25.7228, 91090
4163, 0.00205078, 0.00666504, 0.0297363, 0.0125098, -0.0611596, 0.0562668, 9.79288, -0.152588, 0.0305176, 0, 25.7196, 91090.7
4173, 0.00205078, 0.00502441, 0.0326074, 0.0116895, -0.0880698, 0.0293566, 9.81489, -0.106812, -0.152588, -0.0457764, 25.7381, 91090.2
4183, 0.00205078, 0.00625488, 0.0317871, 0.0116895, -0.0611596, 0.0440349, 9.80266, -0.0762939, -0.0915527, -0.0457764, 25.7104, 91090.3
4193, 0.000410156, 0.00625488, 0.0317871, 0.0108691, -0.0782843, 0.0513741, 9.81, 0, 0.198364, 0, 25.7285, 91090.3
4213, 0.00205078, 0.00830566, 0.0321973, 0.0108691, -0.0391421, 0.102748, 9.81, -0.0610352, 0.12207, 0, 25.7215, 91090.2
4223, 0.00246094, 0.00543457, 0.0309668, 0.00953613, -0.0807307, 0.102748, 9.84425, -0.12207, -0.213623, 0.0152588, 25.7197, 91090.3
4233, 0.00246094, 0.00451172, 0.034248, 0.00953613, -0.0391421, 0.107641, 9.81979, -0.106812, -0.0152588, 0.0152588, 25.7173, 91090.3
4243, 0.00287109, 0.00666504, 0.034248, 0.0120996, -0.0978554, 0.0782843, 9.83936, -0.106812, -0.137329, -0.0610352, 25.7167, 91090.8
4253, 0.00164062, 0.00666504, 0.0317871, 0.010459, -0.0587132, 0.0513741, 9.78309, -0.137329, -0.0457764, -0.0152588, 25.7106, 91090.4
4263, 0.000410156, 0.00748535, 0.0309668, 0.0112793, -0.0758379, 0.0146783, 9.83446, -0.137329, -0.0152588, -0.0305176, 25.7279, 91090.4
4273, -0.000820312, 0.00871582, 0.0326074, 0.0116895, -0.0464813, 0.0293566, 9.78554, -0.0610352, -0.167847, 0.0152588, 25.7129, 91090.3
4293, 0.000410156, 0.00789551, 0.0317871, 0.0116895, -0.0415885, 0.0929626, 9.81734, -0.0457764, -0.0305176, 0.0457764, 25.7218, 91090.5
4303, 0, 0.00789551, 0.0317871, 0.0129199, -0.0807307, 0.105195, 9.85404, -0.0610352, -0.0457764, 0, 25.7306, 91090.5
4313, 0.00123047, 0.00912598, 0.0301465, 0.0141504, -0.0220175, 0.100302, 9.79288, -0.152588, -0.0305176, 0, 25.7277, 91090.9
4323, 0.00164062, 0.00502441, 0.0305566, 0.0108691, -0.0831771, 0.0831771, 9.82712, -0.228882, 0.0457764, 0.0152588, 25.7157, 91090.8
4333, 0.000410156, 0.00871582, 0.0330176, 0.0108691, -0.0758379, 0.0489277, 9.81245, -0.228882, 0.0152588, -0.0457764, 25.7321, 91090.8
4343, 0.000410156, 0.00871582, 0.0309668, 0.010459, -0.0929626, 0.0611596, 9.82468, -0.137329, -0.0152588, -0.0152588, 25.7243, 91090.7
4353, -0.000410156, 0.00871582, 0.0309668, 0.0100488, -0.0782843, 0.031803, 9.79043, -0.0915527, -0.0610352, -0.0305176, 25.7211, 91090.7
4363, -0.000410156, 0.0070752, 0.0292236, 0.0116895, -0.0807307, 0.0391421, 9.81734, -0.0457764, 0.0915527, 0.0762939, 25.7221, 91091.1
4383, -0.000410156, 0.00410156, 0.0326074, 0.00871582, -0.0366958, 0.0660524, 9.82223, -0.0457764, -0.213623, -0.0305176, 25.7287, 91090.4
4393, -0.000410156, 0.0070752, 0.0317871, 0.00871582, -0.063606, 0.0587132, 9.85648, -0.0152588, 0.198364, 0, 25.7372, 91091
4403, 0.000820312, 0.0070752, 0.0317871, 0.0141504, -0.0660524, 0.0880698, 9.78554, -0.0762939, -0.0610352, -0.0305176, 25.7272, 91090.5
4413, -0.000410156, 0.00584473, 0.031377, 0.0125098, -0.0978554, 0.100302, 9.86382, -0.12207, 0.0305176, -0.0305176, 25.7427, 91090.7
4423, 0, 0.0070752, 0.0309668, 0.0145605, -0.0660524, 0.0978554, 9.80755, -0.106812, -0.0305176, 0.0152588, 25.7265, 91090.7
4433, 0.000820312, 0.00369141, 0.031377, 0.0133301, -0.0905162, 0.0562668, 9.83691, -0.183105, -0.137329, -0.0457764, 25.7208, 91090.7
4443, 0.000820312, 0.00748535, 0.0334277, 0.0133301, -0.0489277, 0.0587132, 9.7782, -0.0915527, 0.0610352, 0, 25.7144, 91091
4463, 0.00164062, 0.00584473, 0.0301465, 0.0108691, -0.0293566, 0.0489277, 9.77575, -0.0610352, 0.137329, 0.0152588, 25.723, 91090.8
4473, 0.00328125, 0.00410156, 0.0301465, 0.0125098, -0.0880698, 0.0684988, 9.83446, -0.152588, -0.0610352, 0.0305176, 25.727, 91090.8
4483, 0.00164062, 0.00748535, 0.0305566, 0.0120996, -0.0440349, 0.0807307, 9.81, -0.0152588, 0.0305176, -0.0152588, 25.7283, 91090.8
4493, 0.00164062, 0.00953613, 0.0321973, 0.0120996, -0.0905162, 0.0831771, 9.83446, -0.0305176, -0.12207, -0.0152588, 25.7274, 91091
4503, 0.00164062, 0.00666504, 0.0321973, 0.0116895, -0.0733915, 0.105195, 9.80511, -0.0915527, -0.0457764, 0.0152588, 25.7193, 91090.9
4513, 0.00287109, 0.00666504, 0.0321973, 0.0125098, -0.0807307, 0.0782843, 9.82957, -0.106812, 0.0915527, 0.0610352, 25.7202, 91091.3
4523, 0, 0.00666504, 0.0326074, 0.0120996, -0.063606, 0.0587132, 9.80266, -0.137329, -0.0305176, 0.0305176, 25.7357, 91091.9
4533, 0.00205078, 0.00666504, 0.0338379, 0.0116895, -0.0709451, 0.0758379, 9.83691, -0.0457764, 0.106812, -0.0457764, 25.7278, 91091.3
4553, 0.000820312, 0.0070752, 0.0334277, 0.0112793, -0.0807307, 0.0758379, 9.82957, -0.0915527, -0.0915527, -0.0305176, 25.7204, 91091.6
4563, 0.00123047, 0.0070752, 0.0334277, 0.010459, -0.0513741, 0.0782843, 9.79288, -0.0915527, -0.106812, 0.0152588, 25.7276, 91090.8
4573, 0, 0.010459, 0.0317871, 0.0120996, -0.100302, 0.102748, 9.86137, -0.152588, -0.0152588, 0.0305176, 25.7272, 91091.5
4583, 0, 0.00748535, 0.0309668, 0.010459, -0.0391421, 0.100302, 9.79532, -0.137329, 0.0305176, 0.0152588, 25.7279, 91091
4593, 0.000410156, 0.00451172, 0.0309668, 0.0120996, -0.0929626, 0.0538205, 9.83936, -0.152588, -0.0610352, 0, 25.7358, 91091
4603, 0.000410156, 0.00584473, 0.0338379, 0.0120996, -0.031803, 0.0660524, 9.79777, -0.152588, 0.106812, -0.0762939, 25.7233, 91090.8
4613, 0.00164062, 0.00584473, 0.0338379, 0.0125098, -0.0758379, 0.0513741, 9.82468, -0.106812, -0.12207, 0, 25.7267, 91091.4
4633, 0, 0.0070752, 0.0305566, 0.0129199, -0.0905162, 0.0587132, 9.81734, -0.12207, -0.0762939, 0, 25.7273, 91091.2
4643, 0.00164062, 0.00748535, 0.0309668, 0.0145605, -0.0709451, 0.0415885, 9.80755, -0.0610352, -0.0152588, 0, 25.7267, 91091.6
4653, 0.00164062, 0.00871582, 0.0305566, 0.0145605, -0.0684988, 0.0758379, 9.81489, -0.0762939, -0.0457764, 0.0305176, 25.7138, 91092
4663, 0.00246094, 0.0070752, 0.0305566, 0.0112793, -0.063606, 0.0758379, 9.79288, -0.0915527, 0.106812, -0.0305176, 25.7282, 91091.3
4673, 0.000820312, 0.0070752, 0.0309668, 0.0125098, -0.0562668, 0.0782843, 9.81, -0.0915527, -0.152588, -0.0152588, 25.7296, 91092.1
4683, 0, 0.00584473, 0.0330176, 0.0129199, -0.0684988, 0.0684988, 9.80755, -0.12207, 0.0152588, -0.0152588, 25.7272, 91091.3
4693, 0.00164062, 0.00543457, 0.0317871, 0.0120996, -0.0758379, 0.0807307, 9.83202, 0, -0.167847, 0.0152588, 25.7251, 91091.3
4703, 0.00164062, 0.00625488, 0.0317871, 0.0120996, -0.0660524, 0.0831771, 9.81, -0.0457764, 0.0457764, -0.0152588, 25.7209, 91091.4
4723, 0.00246094, 0.00410156, 0.0279932, 0.0116895, -0.0611596, 0.0538205, 9.82223, -0.0610352, -0.0457764, 0, 25.7269, 91091.5
4733, 0.00287109, 0.00666504, 0.0321973, 0.0100488, -0.063606, 0.0831771, 9.82468, -0.0152588, -0.0305176, -0.0152588, 25.7195, 91091.6
4743, 0.00123047, 0.00912598, 0.031377, 0.0120996, -0.0611596, 0.0856234, 9.83936, -0.12207, 0.0610352, -0.0152588, 25.7203, 91091.8
4753, 0.00164062, 0.00748535, 0.031377, 0.0120996, -0.0684988, 0.0782843, 9.81489, -0.152588, 0, -0.0152588, 25.7341, 91091.4
4763, 0.00164062, 0.00502441, 0.0292236, 0.0125098, -0.0856234, 0.0587132, 9.81489, -0.0305176, -0.106812, -0.0152588, 25.722, 91091
4773, -0.00123047, 0.00502441, 0.0292236, 0.0133301, -0.0758379, 0.063606, 9.81734, -0.0762939, -0.0305176, 0.0305176, 25.7279, 91091.3
4783, 0.000820312, 0.00666504, 0.0305566, 0.0116895, -0.0978554, 0.063606, 9.82712, -0.0915527, -0.0762939, 0.0152588, 25.726, 91091.9
4823, 0.000410156, 0.00625488, 0.0326074, 0.0116895, -0.0684988, 0.0831771, 9.81734, -0.106812, 0.0457764, 0.0305176, 25.7222, 91091.4
4833, 0.00164062, 0.00912598, 0.0301465, 0.0116895, -0.0856234, 0.0758379, 9.82223, -0.167847, -0.0457764, 0, 25.7269, 91091.4
4843, 0.000410156, 0.00666504, 0.0288135, 0.0108691, -0.0929626, 0.0562668, 9.80021, -0.167847, -0.0305176, 0.0152588, 25.7336, 91091.6
4853, 0.00246094, 0.00789551, 0.0334277, 0.0125098, -0.0660524, 0.0415885, 9.81245, -0.0457764, -0.0762939, 0.0305176, 25.7247, 91091.4
4863, 0.00246094, 0.00789551, 0.0326074, 0.0125098, -0.0758379, 0.0220175, 9.78309, -0.0915527, 0, 0.0457764, 25.7425, 91092
4873, -0.000410156, 0.00789551, 0.0326074, 0.0133301, -0.0415885, 0.0538205, 9.83691, -0.0457764, 0.0305176, 0, 25.7141, 91092
4883, 0, 0.00748535, 0.031377, 0.0116895, -0.0709451, 0.0733915, 9.81489, -0.0762939, -0.0457764, -0.0152588, 25.7317, 91092.3
4893, 0.000410156, 0.0070752, 0.0330176, 0.010459, -0.0684988, 0.0978554, 9.8418, -0.0305176, 0, -0.0457764, 25.7294, 91092
4913, 0.00246094, 0.00871582, 0.0330176, 0.0133301, -0.0489277, 0.0856234, 9.83936, -0.0762939, -0.0152588, 0, 25.7286, 91092
4923, 0.00246094, 0.00625488, 0.0305566, 0.0116895, -0.0733915, 0.0978554, 9.78798, -0.152588, -0.12207, 0, 25.7251, 91091.6
4933, 0.000820312, 0.00625488, 0.0305566, 0.0100488, -0.0587132, 0.0831771, 9.82712, -0.137329, 0.0915527, 0, 25.7403, 91091.8
4943, 0.000820312, 0.00666504, 0.0317871, 0.0125098, -0.0733915, 0.0562668, 9.80266, -0.0610352, -0.0915527, 0.0152588, 25.7322, 91092
4953, 0, 0.00748535, 0.0330176, 0.0129199, -0.0782843, 0.0562668, 9.80755, -0.106812, 0.0152588, 0, 25.732, 91092
4963, -0.00123047, 0.00625488, 0.0326074, 0.0129199, -0.063606, 0.0709451, 9.80511, -0.0610352, -0.0762939, 0.0305176, 25.7245, 91091.6
4973, -0.00123047, 0.00748535, 0.0330176, 0.0129199, -0.0709451, 0.0562668, 9.81979, -0.0610352, 0.12207, 0.0152588, 25.7384, 91092.3
4993, 0.000410156, 0.00584473, 0.031377, 0.0129199, -0.0587132, 0.0684988, 9.80021, -0.0457764, 0.152588, -0.0152588, 25.727, 91092.2
5003, 0.00287109, 0.00543457, 0.0301465, 0.0129199, -0.0366958, 0.0880698, 9.81, 0, 0.0457764, -0.0305176, 25.7296, 91092.2
5013, -0.000820312, 0.00543457, 0.0305566, 0.0120996, -0.063606, 0.0831771, 9.78798, -0.0762939, 0.0762939, 0.0762939, 25.7225, 91092.7
5023, -0.000820312, 0.00543457, 0.0317871, 0.0120996, -0.0856234, 0.095409, 9.83202, -0.0457764, -0.106812, 0.0152588, 25.7267, 91092.5
5033, 0.00164062, 0.00543457, 0.0317871, 0.0120996, -0.0831771, 0.0831771, 9.81, -0.137329, 0.0915527, 0.0152588, 25.717, 91092.1
5043, 0, 0.0070752, 0.0326074, 0.0112793, -0.0513741, 0.0831771, 9.8418, -0.106812, 0.0457764, -0.0610352, 25.7326, 91091.7
5053, 0.000410156, 0.00625488, 0.0317871, 0.0125098, -0.0929626, 0.063606, 9.80755, -0.0152588, -0.0762939, 0.0152588, 25.7294, 91091.8
5063, 0.00205078, 0.0070752, 0.031377, 0.0125098, -0.0440349, 0.063606, 9.85893, -0.0915527, 0.0305176, 0.0152588, 25.7373, 91092.1
5083, 0.000410156, 0.00625488, 0.0326074, 0.010459, -0.0269102, 0.0807307, 9.8418, -0.137329, 0, 0.0305176, 25.722, 91092.5
5093, -0.000820312, 0.00410156, 0.0301465, 0.0129199, -0.0538205, 0.0562668, 9.81979, -0.167847, 0.0457764, 0.0305176, 25.7313, 91092.2
5103, 0, 0.00584473, 0.0317871, 0.0141504, -0.0464813, 0.0513741, 9.83202, -0.152588, -0.0305176, 0.0457764, 25.7303, 91092.5
5113, 0.000820312, 0.00543457, 0.031377, 0.0154834, -0.0856234, 0.0611596, 9.81734, -0.152588, -0.0610352, -0.0152588, 25.7217, 91092.4
5123, 0.00328125, 0.00666504, 0.0326074, 0.0154834, -0.0709451, 0.0709451, 9.82223, -0.137329, 0.0610352, 0.0457764, 25.7242, 91092
5133, 0.00328125, 0.00451172, 0.0330176, 0.0112793, -0.0782843, 0.0611596, 9.79777, 0.0610352, -0.106812, 0.0152588, 25.7284, 91091.8
5143, 0.00164062, 0.00451172, 0.0330176, 0.0100488, -0.0684988, 0.063606, 9.84425, -0.106812, 0.0457764, 0, 25.73, 91091.6
5163, 0.00287109, 0.00748535, 0.0305566, 0.0112793, -0.0587132, 0.0733915, 9.82957, -0.0152588, 0.12207, 0, 25.7243, 91092
5173, 0.000410156, 0.00871582, 0.031377, 0.0112793, -0.0758379, 0.0929626, 9.81, -0.0762939, -0.0762939, -0.0152588, 25.7237, 91091.9
5183, 0.000410156, 0.00789551, 0.0317871, 0.0112793, -0.0538205, 0.0807307, 9.82957, -0.106812, 0.12207, -0.0305176, 25.7237, 91091.6
5193, 0.00123047, 0.00789551, 0.0317871, 0.0120996, -0.0807307, 0.0807307, 9.81245, -0.152588, -0.152588, 0.0457764, 25.7214, 91092.6
5203, 0.000410156, 0.00748535, 0.0317871, 0.0120996, -0.0489277, 0.0709451, 9.82712, -0.183105, 0.0305176, 0.0305176, 25.7349, 91091.4
5213, 0.00164062, 0.00748535, 0.0330176, 0.0112793, -0.0562668, 0.0660524, 9.81979, -0.137329, 0, 0.0152588, 25.7327, 91091.6
5223, -0.000410156, 0.00748535, 0.0326074, 0.0120996, -0.0587132, 0.0611596, 9.81734, -0.0915527, -0.0610352, 0.0305176, 25.7221, 91091.1
5233, -0.000410156, 0.0070752, 0.031377, 0.0120996, -0.0758379, 0.0611596, 9.81, -0.137329, -0.106812, 0.0152588, 25.73, 91091.7
5253, 0.00246094, 0.00830566, 0.0321973, 0.0125098, -0.0929626, 0.0758379, 9.81734, -0.0152588, -0.12207, 0, 25.731, 91091.5
5263, 0.000410156, 0.00789551, 0.0317871, 0.0108691, -0.0538205, 0.0880698, 9.81979, -0.0915527, 0.0305176, -0.0152588, 25.7294, 91091.5
5273, 0.00164062, 0.00625488, 0.0297363, 0.0116895, -0.0758379, 0.0905162, 9.83936, 0, -0.213623, 0, 25.7243, 91090.8
5283, 0.00164062, 0.00584473, 0.031377, 0.0116895, -0.0489277, 0.0856234, 9.80511, -0.0610352, 0.0152588, 0.0305176, 25.7242, 91091.4
5293, 0.00246094, 0.00584473, 0.031377, 0.0116895, -0.0709451, 0.0831771, 9.82957, -0.12207, -0.0762939, 0.0305176, 25.7294, 91092
5303, 0.000820312, 0.00666504, 0.031377, 0.0133301, -0.063606, 0.0587132, 9.79043, -0.152588, 0.106812, -0.0152588, 25.7355, 91091.3
5313, 0.00205078, 0.00912598, 0.0326074, 0.0129199, -0.0684988, 0.0587132, 9.80755, -0.137329, -0.0610352, 0, 25.729, 91092.1
5323, 0.000410156, 0.00666504, 0.0288135, 0.0145605, -0.0758379, 0.0660524, 9.80511, -0.0915527, 0.0152588, -0.0457764, 25.7346, 91091.4
5343, 0.000410156, 0.00666504, 0.0317871, 0.0133301, -0.0415885, 0.0538205, 9.79043, -0.106812, -0.12207, 0, 25.7282, 91091
5353, 0.00205078, 0.00666504, 0.0317871, 0.0129199, -0.0856234, 0.0733915, 9.82223, -0.0762939, -0.0457764, -0.0457764, 25.7289, 91090.4
5363, 0.00205078, 0.00666504, 0.0326074, 0.0116895, -0.0464813, 0.0807307, 9.82468, -0.106812, -0.0610352, -0.0152588, 25.7293, 91090.9
5373, 0.000820312, 0.00871582, 0.0321973, 0.0133301, -0.107641, 0.0611596, 9.82223, -0.0915527, 0, 0, 25.7247, 91090.8
5383, -0.000820312, 0.0070752, 0.0334277, 0.0133301, -0.0562668, 0.0782843, 9.81245, -0.137329, -0.0305176, 0.0762939, 25.7348, 91090.7
5393, -0.000820312, 0.00625488, 0.031377, 0.0125098, -0.0807307, 0.0782843, 9.84914, -0.0762939, -0.0762939, 0.0152588, 25.7304, 91091.3
5403, 0.00369141, 0.00625488, 0.031377, 0.0116895, -0.0440349, 0.0807307, 9.81245, -0.106812, -0.0152588, 0.0457764, 25.7223, 91091.1
5423, 0.00205078, 0.00789551, 0.0305566, 0.0129199, -0.0513741, 0.0660524, 9.79532, -0.137329, 0.0305176, 0.0305176, 25.7242, 91090.9
5433, 0.00164062, 0.0070752, 0.031377, 0.0125098, -0.0929626, 0.0587132, 9.82223, -0.137329, 0.0610352, -0.0457764, 25.7386, 91090.9
5443, 0.00164062, 0.00625488, 0.0317871, 0.0125098, -0.0709451, 0.0562668, 9.79288, 0, -0.0457764, 0.0610352, 25.739, 91090.9
5453, -0.000410156, 0.00625488, 0.0317871, 0.0125098, -0.0831771, 0.0684988, 9.83691, -0.152588, 0.0762939, 0, 25.723, 91090.5
5463, 0.00246094, 0.00584473, 0.0326074, 0.0116895, -0.0684988, 0.0880698, 9.81734, -0.152588, -0.0915527, -0.0152588, 25.7254, 91091.4
5473, -0.00164062, 0.00584473, 0.0317871, 0.0108691, -0.0733915, 0.0709451, 9.83202, -0.12207, -0.0457764, 0.0305176, 25.719, 91091.1
5483, 0, 0.00748535, 0.0317871, 0.010459, -0.0562668, 0.0562668, 9.80755, -0.12207, -0.198364, 0.0457764, 25.7325, 91091.4
5493, 0, 0.00543457, 0.0317871, 0.010459, -0.0807307, 0.0562668, 9.82957, -0.0762939, 0.0457764, 0.0305176, 25.7292, 91091.2
5513, 0.000820312, 0.00625488, 0.0309668, 0.0112793, -0.0758379, 0.0587132, 9.82957, -0.167847, 0.137329, -0.0305176, 25.7275, 91091.8
5523, 0.00328125, 0.00584473, 0.0321973, 0.00912598, -0.0562668, 0.0709451, 9.81734, -0.12207, -0.167847, -0.0305176, 25.7317, 91091.3
5533, 0.00287109, 0.00666504, 0.031377, 0.0141504, -0.0611596, 0.0733915, 9.82468, -0.12207, 0.0152588, -0.0305176, 25.7321, 91090.6
5543, 0.000820312, 0.00584473, 0.0317871, 0.0141504, -0.063606, 0.0807307, 9.82468, -0.0915527, -0.0762939, 0.0152588, 25.7304, 91091.5
5553, 0.000820312, 0.00584473, 0.0321973, 0.0133301, -0.0464813, 0.0733915, 9.82223, -0.0305176, 0.0152588, 0.0152588, 25.7293, 91091.6
5563, 0.00246094, 0.00543457, 0.0321973, 0.0125098, -0.0782843, 0.0684988, 9.80511, -0.0610352, 0.0457764, 0.0152588, 25.7146, 91091.5
5573, 0.000820312, 0.00666504, 0.0338379, 0.0108691, -0.0244638, 0.063606, 9.80266, 0, 0.0457764, 0, 25.7271, 91091.6
5613, 0.00328125, 0.00451172, 0.0297363, 0.010459, -0.0440349, 0.0807307, 9.80021, -0.0305176, 0.0915527, 0.0152588, 25.7373, 91092.1
5623, 0.00164062, 0.00830566, 0.0309668, 0.010459, -0.0660524, 0.0758379, 9.83202, -0.167847, -0.12207, 0.0152588, 25.7338, 91091.9
5633, 0.00328125, 0.00748535, 0.0326074, 0.0129199, -0.0562668, 0.063606, 9.79777, -0.12207, 0.0457764, -0.0610352, 25.7272, 91090.9
5643, 0.000820312, 0.00543457, 0.0334277, 0.0116895, -0.0831771, 0.0856234, 9.83446, -0.0915527, 0.0152588, 0, 25.7388, 91091.5
5653, 0.000820312, 0.00789551, 0.0305566, 0.0116895, -0.0611596, 0.0831771, 9.80266, -0.0762939, -0.0305176, 0.0152588, 25.7434, 91091.2
5663, -0.000820312, 0.00789551, 0.0305566, 0.0120996, -0.0684988, 0.0807307, 9.83936, -0.106812, 0, -0.0152588, 25.7293, 91091.4
5673, -0.000820312, 0.00666504, 0.0309668, 0.0116895, -0.0513741, 0.0782843, 9.81, -0.137329, -0.12207, 0, 25.7297, 91091.3
5683, 0.00123047, 0.00830566, 0.0317871, 0.00912598, -0.0856234, 0.0660524, 9.82957, -0.137329, 0.0610352, 0, 25.7428, 91091.2
5703, -0.000820312, 0.00748535, 0.0301465, 0.0133301, -0.0905162, 0.0562668, 9.82468, -0.0915527, 0.0152588, 0.0152588, 25.7264, 91091.3
5713, -0.000820312, 0.00748535, 0.0301465, 0.0125098, -0.0513741, 0.0611596, 9.81734, -0.12207, -0.0610352, -0.0457764, 25.7321, 91090.9
5723, 0, 0.0070752, 0.031377, 0.0116895, -0.0782843, 0.0782843, 9.81734, -0.0457764, -0.0915527, 0, 25.7259, 91092
5733, 0, 0.00748535, 0.0288135, 0.0112793, -0.063606, 0.0562668, 9.81, -0.137329, -0.0152588, 0.0610352, 25.7277, 91091.1
5743, 0.00246094, 0.00543457, 0.031377, 0.0141504, -0.063606, 0.0929626, 9.81489, -0.12207, 0, 0.0610352, 25.7394, 91091.3
5753, 0.00328125, 0.00543457, 0.0326074, 0.0141504, -0.0782843, 0.0905162, 9.83446, -0.0762939, 0, -0.0152588, 25.7323, 91091.3
5763, 0.00328125, 0.00543457, 0.031377, 0.0129199, -0.0587132, 0.0856234, 9.82957, -0.106812, 0, 0.0457764, 25.7279, 91091
5783, 0.000820312, 0.00789551, 0.0309668, 0.0133301, -0.0733915, 0.0856234, 9.81734, -0.137329, 0.0610352, -0.0457764, 25.7332, 91090.9
5793, 0.00123047, 0.00502441, 0.034248, 0.0116895, -0.063606, 0.0611596, 9.82712, -0.152588, -0.0915527, -0.0152588, 25.7237, 91090.9
5803, 0.000820312, 0.00666504, 0.0309668, 0.0116895, -0.0709451, 0.0513741, 9.80511, -0.12207, 0.0762939, 0.0305176, 25.7294, 91091.4
5813, 0.000820312, 0.00625488, 0.0309668, 0.0120996, -0.0513741, 0.031803, 9.80755, -0.0457764, -0.0915527, 0, 25.724, 91090.7
5823, -0.000820312, 0.00625488, 0.0309668, 0.0116895, -0.0807307, 0.0489277, 9.80511, -0.0610352, -0.0152588, 0, 25.7378, 91090.6
5833, 0.00123047, 0.00584473, 0.0317871, 0.0120996, -0.0587132, 0.0782843, 9.81734, -0.0610352, -0.0152588, -0.0305176, 25.7116, 91090.8
5843, 0.00123047, 0.0070752, 0.0334277, 0.010459, -0.0660524, 0.0513741, 9.80511, -0.106812, 0.0915527, 0, 25.7265, 91090.8
5893, 0.000410156, 0.00830566, 0.0334277, 0.0108691, -0.0660524, 0.0660524, 9.81734, -0.0152588, -0.167847, -0.0152588, 25.732, 91091.2
5903, -0.000410156, 0.00666504, 0.031377, 0.0120996, -0.0538205, 0.0758379, 9.81245, -0.152588, 0.0152588, -0.0305176, 25.7265, 91090.5
5913, 0.00246094, 0.00625488, 0.0321973, 0.0120996, -0.0709451, 0.0587132, 9.81734, -0.183105, -0.198364, 0.0610352, 25.7392, 91090.8
5923, 0.00246094, 0.00625488, 0.0321973, 0.0112793, -0.0587132, 0.0464813, 9.82223, -0.106812, 0.0457764, 0.0457764, 25.7296, 91091.1
5933, -0.000820312, 0.00748535, 0.031377, 0.0112793, -0.0758379, 0.0831771, 9.82712, -0.12207, -0.0762939, 0, 25.7425, 91090.6
5943, 0.000410156, 0.0070752, 0.0301465, 0.0125098, -0.0611596, 0.095409, 9.80021, -0.0762939, 0, 0.0762939, 25.7239, 91090.9
5953, -0.000410156, 0.0070752, 0.0321973, 0.0112793, -0.0733915, 0.063606, 9.83202, -0.106812, -0.0457764, 0.0305176, 25.7385, 91090.5
5993, -0.000820312, 0.00625488, 0.0321973, 0.0120996, -0.0905162, 0.0978554, 9.83691, -0.137329, -0.0762939, -0.0610352, 25.7248, 91091.1
6003, 0.00328125, 0.00912598, 0.0301465, 0.0125098, -0.063606, 0.0782843, 9.79532, -0.0610352, -0.0152588, 0, 25.7336, 91091.7
6013, 0.00123047, 0.00451172, 0.0326074, 0.0125098, -0.100302, 0.0782843, 9.84914, -0.0915527, 0.0305176, 0, 25.7414, 91091.7
6023, 0.00123047, 0.00748535, 0.031377, 0.0108691, -0.0464813, 0.0880698, 9.78064, -0.106812, -0.0762939, 0.0152588, 25.7219, 91091.1
6033, 0.00205078, 0.00748535, 0.031377, 0.0112793, -0.0709451, 0.0562668, 9.84914, -0.0762939, -0.0152588, 0.0762939, 25.7359, 91091.8
6043, 0.000410156, 0.00625488, 0.0317871, 0.0112793, -0.0440349, 0.0709451, 9.77575, -0.0915527, -0.0610352, -0.0457764, 25.7264, 91091.6
6053, 0.000820312, 0.00748535, 0.0317871, 0.0129199, -0.0807307, 0.0660524, 9.81, -0.137329, 0.152588, -0.0610352, 25.7318, 91091.4
6063, -0.000410156, 0.00830566, 0.0355811, 0.0133301, -0.0587132, 0.0391421, 9.78798, -0.0305176, -0.183105, 0, 25.743, 91092.1
6083, 0, 0.00789551, 0.0330176, 0.0125098, -0.0758379, 0.0489277, 9.80021, -0.106812, -0.12207, -0.0305176, 25.7441, 91091.5
6093, 0, 0.00748535, 0.031377, 0.0116895, -0.0758379, 0.0513741, 9.81979, -0.0305176, 0.0762939, 0, 25.7269, 91091.9
6103, -0.000820312, 0.00584473, 0.0321973, 0.0125098, -0.0562668, 0.0758379, 9.81489, -0.0762939, -0.0762939, -0.0610352, 25.739, 91091.8
6113, 0.00205078, 0.00830566, 0.0326074, 0.0112793, -0.0831771, 0.0709451, 9.83202, 0.0152588, 0.0610352, 0.0152588, 25.7308, 91092.1
6123, 0.00164062, 0.00830566, 0.0326074, 0.0112793, -0.0709451, 0.0587132, 9.83202, 0, -0.106812, 0, 25.7408, 91091.6
6133, 0.00164062, 0.00830566, 0.0326074, 0.0133301, -0.0391421, 0.0880698, 9.80755, -0.0762939, -0.0305176, 0.0152588, 25.7387, 91092
6143, 0.000820312, 0.00502441, 0.0309668, 0.010459, -0.063606, 0.105195, 9.82712, -0.0915527, -0.0305176, 0.0457764, 25.7321, 91091.9
6163, 0.000820312, 0.00666504, 0.031377, 0.0129199, -0.0758379, 0.0611596, 9.83691, -0.137329, -0.0915527, 0.0457764, 25.735, 91091.7
6173, 0.00123047, 0.00871582, 0.0330176, 0.0129199, -0.0660524, 0.0587132, 9.81245, -0.183105, -0.0152588, 0, 25.7294, 91091.5
6183, 0.00123047, 0.00871582, 0.0334277, 0.0129199, -0.0929626, 0.0440349, 9.83202, -0.167847, -0.0915527, 0.0152588, 25.7354, 91092
6193, 0.000410156, 0.00830566, 0.0334277, 0.0116895, -0.0464813, 0.0562668, 9.78798, -0.0610352, 0.0457764, 0, 25.7332, 91092.1
6203, 0.00164062, 0.00666504, 0.0309668, 0.010459, -0.0684988, 0.063606, 9.81489, -0.0915527, -0.106812, -0.0152588, 25.716, 91091.4
6213, 0.00164062, 0.00666504, 0.0301465, 0.0116895, -0.063606, 0.063606, 9.80266, -0.0610352, 0.0457764, 0.0305176, 25.7307, 91092
6223, 0.00246094, 0.00789551, 0.0297363, 0.0116895, -0.0538205, 0.0562668, 9.85159, -0.0305176, -0.0457764, 0.0152588, 25.733, 91091.2
6233, 0.00246094, 0.00789551, 0.0334277, 0.0145605, -0.0660524, 0.0684988, 9.81489, -0.0762939, -0.0152588, -0.0305176, 25.7342, 91091.7
6253, -0.000410156, 0.00748535, 0.0326074, 0.0125098, -0.0489277, 0.0611596, 9.81489, -0.0610352, -0.0762939, -0.0152588, 25.7321, 91091.3
6263, 0.00123047, 0.00369141, 0.0338379, 0.0116895, -0.0831771, 0.0782843, 9.83202, -0.137329, 0.106812, 0.0457764, 25.743, 91091.6
6273, 0.000410156, 0.00584473, 0.031377, 0.0116895, -0.0587132, 0.0782843, 9.80021, -0.0610352, -0.12207, -0.0457764, 25.7375, 91091.9
6283, 0.000410156, 0.00625488, 0.0297363, 0.0112793, -0.063606, 0.0709451, 9.82712, -0.137329, -0.0457764, 0.0305176, 25.7485, 91091.8
6293, 0.000410156, 0.00625488, 0.0297363, 0.0112793, -0.0440349, 0.0856234, 9.80266, -0.0915527, -0.0305176, -0.0152588, 25.7273, 91092.2
6303, 0.00246094, 0.00625488, 0.0301465, 0.0141504, -0.0684988, 0.0831771, 9.81489, -0.0152588, 0.0305176, 0.0152588, 25.7292, 91091.7
6313, 0, 0.00748535, 0.0326074, 0.0125098, -0.0807307, 0.0782843, 9.82223, -0.0762939, -0.0457764, 0.0152588, 25.7262, 91091.9
6333, 0.00164062, 0.00584473, 0.0309668, 0.0100488, -0.0929626, 0.0587132, 9.81, -0.0457764, -0.0762939, 0, 25.7332, 91091.6
6343, 0.00164062, 0.00584473, 0.0309668, 0.0112793, -0.0684988, 0.0733915, 9.81979, -0.106812, -0.0457764, 0.0152588, 25.7385, 91091.2
6353, 0.000410156, 0.00451172, 0.0330176, 0.0129199, -0.0880698, 0.0709451, 9.80755, -0.137329, -0.0915527, 0.0457764, 25.7362, 91092.2
6363, -0.000820312, 0.0070752, 0.031377, 0.0125098, -0.0464813, 0.0611596, 9.82468, -0.12207, 0.0152588, 0, 25.7371, 91091.4
6373, 0.00205078, 0.00543457, 0.0301465, 0.0112793, -0.0587132, 0.0538205, 9.80755, -0.0610352, -0.12207, 0.0305176, 25.7379, 91091.5
6383, 0.00123047, 0.00748535, 0.0305566, 0.0112793, -0.0709451, 0.0489277, 9.81245, -0.0610352, 0.152588, 0.0305176, 25.7405, 91091
6393, 0.00123047, 0.00748535, 0.0305566, 0.0150732, -0.0489277, 0.0660524, 9.79532, -0.0762939, -0.12207, -0.0305176, 25.7405, 91091.3
6403, -0.00123047, 0.00953613, 0.0305566, 0.0129199, -0.0758379, 0.0831771, 9.81734, -0.0305176, 0.0762939, -0.0457764, 25.7356, 91091.9
6423, 0, 0.0070752, 0.0326074, 0.0129199, -0.100302, 0.0807307, 9.83202, -0.0457764, -0.0152588, 0.0152588, 25.7541, 91091.1
6433, 0, 0.00625488, 0.0317871, 0.0129199, -0.0684988, 0.0489277, 9.82223, -0.0762939, -0.137329, -0.0152588, 25.7404, 91091.2
6443, 0, 0.00625488, 0.0321973, 0.0133301, -0.0733915, 0.0807307, 9.85893, -0.0457764, -0.0457764, 0.0305176, 25.7365, 91091.2
6453, 0.00205078, 0.00625488, 0.0321973, 0.0116895, 0.031803, 0.117426, 9.75618, -0.12207, -0.152588, 0.0152588, 25.7259, 91091.2
6463, 0.000820312, 0.00584473, 0.0326074, 0.0116895, -0.095409, 0.0195711, 9.8418, -0.12207, 0.38147, -0.0305176, 25.7364, 91091.5
6473, 0.00287109, 0.0070752, 0.0292236, 0.010459, -0.0684988, 0.0587132, 9.82712, -0.0610352, -0.610352, -0.0457764, 25.7346, 91091.1
6483, 0.00123047, 0.00502441, 0.0317871, 0.010459, -0.00489277, 0.0440349, 9.73906, -0.152588, 0.442505, 0.0457764, 25.7361, 91091
6503, 0, 0.00543457, 0.0326074, 0.00953613, -0.0342494, 0.0709451, 9.76597, -0.0457764, 0.183105, -0.0152588, 25.7443, 91091.5
6513, 0.000820312, 0.00451172, 0.0317871, 0.0129199, -0.119873, 0.063606, 9.89807, -0.0152588, -0.137329, 0.0457764, 25.7389, 91091.2
6523, -0.000410156, 0.00666504, 0.0326074, 0.0133301, 0.00489277, 0.107641, 9.74395, -0.0305176, -0.152588, 0.0457764, 25.735, 91091.5
6533, 0.00164062, 0.00625488, 0.031377, 0.0158936, -0.0782843, 0.122319, 9.86627, -0.0762939, 0.0152588, 0, 25.7327, 91091.1
6543, 0.000410156, 0.0070752, 0.0338379, 0.0158936, -0.0366958, 0.0929626, 9.78554, -0.12207, -0.0152588, 0.0305176, 25.7402, 91090.9
6553, 0.000410156, 0.0070752, 0.0338379, 0.0112793, -0.105195, 0.0978554, 9.86871, -0.213623, 0.137329, 0.0152588, 25.7428, 91091.4
6563, 0.00369141, 0.00871582, 0.031377, 0.0125098, -0.0513741, 0.0538205, 9.78064, -0.152588, -0.12207, 0, 25.7444, 91091.8
6573, -0.000820312, 0.00789551, 0.0330176, 0.0120996, -0.11498, 0.0244638, 9.83691, -0.0915527, 0.137329, 0, 25.7383, 91091.3
6593, 0.00205078, 0.00287109, 0.0309668, 0.0125098, -0.127212, 0.063606, 9.84914, -0.0152588, 0.0915527, 0.0305176, 25.7355, 91091.2
6603, 0.00205078, 0.00287109, 0.0330176, 0.0120996, -0.0269102, 0.0880698, 9.79043, 0.0152588, -0.167847, 0.0152588, 25.7267, 91091.1
6613, 0, 0.00748535, 0.0330176, 0.0133301, -0.0782843, 0.0929626, 9.83691, -0.12207, 0.0915527, 0.0152588, 25.7392, 91091.9
6623, 0.00164062, 0.0070752, 0.0326074, 0.0125098, -0.0415885, 0.0758379, 9.81734, -0.0915527, -0.152588, 0, 25.7353, 91091
6633, 0.00164062, 0.00666504, 0.0309668, 0.0108691, -0.0660524, 0.0905162, 9.82712, -0.12207, 0.0457764, 0, 25.7416, 91091.4
6643, 0.00246094, 0.00666504, 0.0321973, 0.0108691, -0.0758379, 0.063606, 9.83202, -0.0915527, -0.0610352, -0.0152588, 25.7448, 91091.5
6653, 0.00246094, 0.00666504, 0.0309668, 0.0112793, -0.0587132, 0.0611596, 9.83202, -0.0915527, 0.12207, 0.0457764, 25.7461, 91091.4
6673, -0.000410156, 0.00830566, 0.0330176, 0.0112793, -0.0611596, 0.0733915, 9.81, -0.0762939, 0.12207, -0.0457764, 25.7317, 91091.5
6683, 0.00123047, 0.00953613, 0.0330176, 0.0129199, -0.0880698, 0.0587132, 9.81979, -0.106812, -0.244141, 0.0305176, 25.7503, 91091.9
6693, 0.00205078, 0.00871582, 0.0301465, 0.0129199, -0.0587132, 0.0709451, 9.79043, -0.137329, 0.183105, 0.0152588, 25.7411, 91091.7
6703, 0.00246094, 0.00912598, 0.0330176, 0.0125098, -0.0611596, 0.0782843, 9.83691, 0, -0.183105, 0.0610352, 25.7395, 91091.2
6713, 0.00246094, 0.00912598, 0.0330176, 0.0120996, -0.0562668, 0.0831771, 9.80755, -0.106812, 0.0762939, 0.0152588, 25.7348, 91091.8
6723, 0.00502441, 0.00451172, 0.0338379, 0.0133301, -0.0709451, 0.0782843, 9.8467, -0.106812, 0, 0.0152588, 25.7445, 91091.1
6733, -0.000410156, 0.00543457, 0.0355811, 0.010459, -0.0807307, 0.0709451, 9.81489, -0.137329, 0.0762939, -0.0610352, 25.7381, 91091.3
6743, 0.00123047, 0.00953613, 0.031377, 0.0133301, -0.0905162, 0.0660524, 9.82957, -0.152588, -0.106812, -0.0457764, 25.7361, 91091.5
6783, 0.00164062, 0.00502441, 0.0330176, 0.0125098, -0.0758379, 0.0856234, 9.82712, -0.12207, -0.0610352, 0.0610352, 25.7418, 91091.7
6793, 0.00246094, 0.0070752, 0.031377, 0.0120996, -0.0562668, 0.0831771, 9.81, -0.0457764, 0.0305176, 0, 25.7333, 91091.8
6803, -0.00123047, 0.00543457, 0.031377, 0.0120996, -0.0905162, 0.0758379, 9.84425, -0.183105, 0.0152588, 0.0305176, 25.7434, 91092
6813, -0.00123047, 0.00543457, 0.0317871, 0.0133301, -0.0684988, 0.0733915, 9.82957, -0.152588, 0.0305176, -0.0305176, 25.7338, 91091.7
6823, -0.000820312, 0.0070752, 0.0317871, 0.0112793, -0.0978554, 0.0611596, 9.8467, -0.106812, -0.0610352, 0, 25.7414, 91091.8
6833, 0.00328125, 0.00666504, 0.0317871, 0.0120996, -0.0440349, 0.0709451, 9.82712, -0.12207, -0.244141, 0, 25.7446, 91091.8
6843, 0, 0.00625488, 0.034248, 0.0100488, 0.0269102, 0.0562668, 9.75129, -0.0762939, 0.0610352, 0.0457764, 25.7406, 91091.8
6863, 0.000410156, 0.00748535, 0.0334277, 0.0116895, -0.0269102, 0.0807307, 9.77575, -0.106812, -0.320435, 0.0152588, 25.7404, 91091.8
6873, 0.00164062, 0.00584473, 0.0334277, 0.010459, -0.0733915, 0.0195711, 9.78064, -0.106812, 0.335693, 0, 25.7451, 91091.9
6883, 0.00164062, 0.00584473, 0.0326074, 0.0120996, -0.149229, 0.0782843, 9.90052, -0.0610352, -0.213623, -0.0610352, 25.7422, 91092.3
6893, 0.000820312, 0.00543457, 0.0330176, 0.0129199, 0.0562668, 0.0856234, 9.71948, -0.0915527, -0.0610352, 0.0152588, 25.7399, 91091.5
6903, 0.000410156, 0.0100488, 0.0305566, 0.0129199, -0.200604, 0.0440349, 9.93721, -0.137329, 0.259399, -0.0305176, 25.7478, 91092.3
6913, -0.000410156, 0.0100488, 0.0321973, 0.010459, 0.0587132, 0.110087, 9.69991, -0.0610352, -0.473022, 0, 25.7498, 91092.2
6923, -0.000410156, 0.00543457, 0.0321973, 0.0133301, -0.144337, 0.0464813, 9.89073, -0.0762939, 0.595093, -0.0152588, 25.7412, 91091.6
6933, 0.00123047, 0.00451172, 0.0309668, 0.0145605, -0.0611596, 0.0880698, 9.82712, -0.0610352, -0.62561, -0.0457764, 25.7452, 91092.2
6953, 0, 0.0070752, 0.0326074, 0.0137402, -0.127212, 0.0513741, 9.85648, -0.12207, -0.366211, -0.0457764, 25.7501, 91091.5
6963, 0.00246094, 0.0070752, 0.034248, 0.0137402, -0.0122319, 0.110087, 9.76352, -0.12207, 0.0915527, -0.0762939, 25.7332, 91091.5
6973, 0.00246094, 0.0070752, 0.034248, 0.010459, -0.102748, 0.063606, 9.83446, -0.0915527, -0.152588, 0.0457764, 25.7484, 91092.3
6983, 0.00205078, 0.00871582, 0.0330176, 0.0129199, -0.0709451, 0.0660524, 9.81734, -0.106812, 0.106812, -0.0610352, 25.742, 91091.7
6993, 0.000410156, 0.00502441, 0.031377, 0.0141504, -0.0415885, 0.0880698, 9.82223, -0.0915527, -0.228882, -0.0305176, 25.7346, 91091.8
7003, 0.00287109, 0.00666504, 0.0317871, 0.0120996, -0.0684988, 0.0660524, 9.80755, -0.106812, 0.213623, 0.0152588, 25.7518, 91091.9
7013, 0, 0.00748535, 0.0309668, 0.0120996, -0.031803, 0.0758379, 9.80266, -0.0457764, -0.228882, -0.0305176, 25.7348, 91092.4
7033, -0.000410156, 0.00502441, 0.0309668, 0.0116895, -0.156569, 0.0293566, 9.85159, -0.0762939, -0.106812, 0.0305176, 25.7547, 91092.1
7043, 0.000820312, 0.00871582, 0.031377, 0.0133301, -0.0807307, 0.0905162, 9.84425, 0.0152588, -0.137329, -0.0305176, 25.7512, 91091.8
7053, 0.00123047, 0.00912598, 0.0317871, 0.0129199, 0.0489277, 0.095409, 9.71948, -0.137329, -0.350952, 0.106812, 25.7518, 91091.5
7063, -0.000410156, 0.00666504, 0.031377, 0.0129199, -0.168801, 0.031803, 9.8785, -0.0457764, 0.610352, -0.0457764, 25.7488, 91092.2
7073, -0.000410156, 0.00666504, 0.031377, 0.010459, 0.00978554, 0.129658, 9.82712, -0.0915527, -0.900268, -0.0152588, 25.7475, 91092.2
7083, 0.000820312, 0.00748535, 0.031377, 0.0116895, 0.00244638, 0.0366958, 9.71214, -0.137329, 1.06812, -0.0457764, 25.7659, 91092.3
7093, 0.00205078, 0.0070752, 0.0321973, 0.0137402, -0.22996, 0.102748, 10.0155, -0.0457764, -0.671387, 0.0305176, 25.7451, 91091.5
7103, 0.000820312, 0.00584473, 0.031377, 0.0133301, 0.151676, 0.102748, 9.58983, -0.0610352, 0.259399, 0, 25.7448, 91092
7123, -0.000820312, 0.00789551, 0.0334277, 0.0116895, 0.117426, 0.11498, 9.63631, -0.0762939, -0.656128, 0.0152588, 25.7421, 91091.9
7133, -0.000820312, 0.00584473, 0.0334277, 0.0100488, -0.168801, 0.0440349, 9.92498, -0.167847, 0.762939, -0.0610352, 25.7455, 91091.9
7143, 0.000410156, 0.00502441, 0.0321973, 0.0120996, -0.0220175, 0.0220175, 9.75618, -0.0610352, -0.686645, -0.0152588, 25.7497, 91092.4
7153, 0.00164062, 0.0070752, 0.031377, 0.0125098, -0.0440349, 0.063606, 9.83202, -0.0762939, 0.595093, 0.0305176, 25.7396, 91091.9
7163, 0.00205078, 0.00871582, 0.0326074, 0.0133301, -0.119873, 0.0146783, 9.80511, -0.0305176, -0.320435, -0.0152588, 25.736, 91091.3
7173, 0.00287109, 0.00543457, 0.0334277, 0.0133301, -0.0538205, 0.0856234, 9.8418, -0.0610352, 0.0457764, 0.0152588, 25.7638, 91092.3
7183, 0.00287109, 0.00543457, 0.0334277, 0.0112793, -0.0415885, 0.0513741, 9.78554, -0.0610352, -0.213623, 0.0915527, 25.7494, 91092.3
7203, 0.000410156, 0.0070752, 0.0334277, 0.0112793, -0.0660524, 0.0758379, 9.78554, -0.0762939, -0.152588, -0.0152588, 25.7463, 91092
7213, 0.00246094, 0.00543457, 0.0334277, 0.0125098, -0.0758379, 0.0929626, 9.85893, -0.0762939, -0.0610352, 0.0610352, 25.7557, 91092.2
7223, 0.00123047, 0.00246094, 0.0317871, 0.0125098, -0.00489277, 0.0733915, 9.75129, -0.12207, 0.0610352, -0.0152588, 25.7633, 91092.3
7233, 0.00123047, 0.00246094, 0.0317871, 0.0125098, -0.161461, 0.0709451, 9.91275, -0.0762939, 0.152588, 0.0305176, 25.7382, 91091.7
7243, 0.000820312, 0.00789551, 0.0309668, 0.0125098, 0.0440349, 0.0929626, 9.70236, -0.198364, -0.579834, 0, 25.7507, 91092
7253, 0.00246094, 0.00748535, 0.0317871, 0.0129199, -0.161461, 0.0440349, 9.89318, -0.12207, 0.701904, -0.0305176, 25.7425, 91091.6
7263, 0.00164062, 0.00543457, 0.0305566, 0.0129199, -0.0366958, 0.095409, 9.78798, -0.0915527, -0.854492, 0.0610352, 25.7557, 91091.7
7273, 0.00205078, 0.00625488, 0.0334277, 0.0129199, -0.0684988, 0.0440349, 9.7782, -0.0915527, 0.808716, -0.0457764, 25.7554, 91092.3
7293, 0.00164062, 0.0070752, 0.0330176, 0.010459, 0.0587132, 0.0831771, 9.68524, -0.0610352, -0.198364, -0.0305176, 25.7363, 91092.2
7303, 0.000820312, 0.00584473, 0.0317871, 0.0141504, -0.207943, 0.0538205, 9.96657, 0.0152588, -0.0305176, -0.0152588, 25.7557, 91091.8
7313, 0.00123047, 0.0070752, 0.0326074, 0.0116895, 0.0562668, 0.122319, 9.69013, -0.0610352, 0.0457764, -0.0305176, 25.7426, 91092.3
7323, 0.000410156, 0.0070752, 0.0321973, 0.0116895, -0.161461, 0.0856234, 9.947, -0.167847, -0.152588, 0.0305176, 25.7457, 91092.7
7333, 0.000410156, 0.0070752, 0.034248, 0.0141504, 0.0440349, 0.0464813, 9.70236, -0.198364, 0.259399, -0.0457764, 25.7496, 91092.7
7343, 0.000410156, 0.0070752, 0.034248, 0.0116895, -0.139444, 0.0587132, 9.89807, -0.0762939, -0.167847, 0.0152588, 25.7549, 91091.8
7353, 0.00205078, 0.00830566, 0.0301465, 0.0112793, -0.0244638, 0.0489277, 9.74639, -0.0762939, 0.0152588, -0.0152588, 25.7484, 91092.9
7373, -0.000410156, 0.00625488, 0.0321973, 0.0133301, 0.031803, 0.0733915, 9.72193, -0.167847, 0.228882, 0, 25.747, 91093
7383, 0.00369141, 0.00543457, 0.031377, 0.0133301, -0.183479, 0.0905162, 9.94211, -0.106812, -0.366211, -0.0305176, 25.7511, 91092.9
7393, 0.00369141, 0.00543457, 0.031377, 0.0129199, 0.0562668, 0.102748, 9.70481, -0.106812, 0.579834, -0.0457764, 25.7419, 91093.6
7403, 0.000820312, 0.0070752, 0.0326074, 0.0116895, -0.17614, 0.0538205, 9.90296, -0.137329, -0.778198, -0.0152588, 25.7399, 91092.8
7413, 0.00205078, 0.00666504, 0.0321973, 0.0116895, 0.00489277, 0.0905162, 9.79288, -0.0610352, 0.747681, 0.0305176, 25.7588, 91092.8
7423, -0.00164062, 0.0070752, 0.034248, 0.0133301, -0.0489277, 0.0464813, 9.78798, -0.12207, -0.717163, -0.0610352, 25.7487, 91092.5
7433, 0.00205078, 0.00748535, 0.0334277, 0.0133301, -0.132105, 0.0733915, 9.90296, -0.0305176, 0.411987, 0.0762939, 25.7482, 91092.8
7443, 0.00205078, 0.00748535, 0.0334277, 0.0116895, 0.0464813, 0.0758379, 9.68279, -0.0762939, -0.183105, -0.0152588, 25.7496, 91092.3
7463, -0.000410156, 0.00502441, 0.0309668, 0.0125098, 0.0660524, 0.0905162, 9.70236, -0.0610352, 0.198364, -0.0305176, 25.7453, 91092.5
7473, 0.000820312, 0.00871582, 0.0317871, 0.0125098, -0.171247, 0.0538205, 9.91764, -0.0610352, -0.366211, -0.0305176, 25.737, 91092.3
7483, -0.00123047, 0.00871582, 0.0330176, 0.0125098, -0.00244638, 0.0807307, 9.74884, -0.0610352, 0.320435, -0.0305176, 25.7377, 91092.1
7493, 0.00246094, 0.00871582, 0.0326074, 0.0145605, -0.0782843, 0.0929626, 9.8467, -0.0610352, -0.350952, -0.0305176, 25.7447, 91092.5
7503, 0.00246094, 0.00748535, 0.0326074, 0.0145605, -0.0538205, 0.0782843, 9.80021, -0.137329, 0.228882, 0.0457764, 25.7505, 91092.2
7513, 0.00123047, 0.00912598, 0.0330176, 0.0116895, -0.0440349, 0.0831771, 9.81245, 0.0152588, -0.0762939, 0.0610352, 25.7505, 91092.4
7523, 0.000410156, 0.00625488, 0.0338379, 0.00953613, -0.0856234, 0.0391421, 9.80266, -0.0610352, 0.0762939, -0.0305176, 25.7515, 91092.7
7533, 0.00328125, 0.00625488, 0.0321973, 0.00953613, -0.0807307, 0.0415885, 9.81, -0.0915527, -0.152588, 0.0152588, 25.7462, 91092.2
7573, 0, 0.00748535, 0.0330176, 0.0120996, -0.0391421, 0.0782843, 9.79532, -0.167847, 0.244141, 0.0457764, 25.7492, 91092.6
7583, 0.00205078, 0.00789551, 0.0321973, 0.0133301, -0.0660524, 0.0611596, 9.83202, -0.0457764, -0.183105, 0.0305176, 25.7469, 91093.3
7593, -0.000820312, 0.00451172, 0.031377, 0.0133301, -0.0978554, 0.0709451, 9.84914, -0.0762939, 0.0762939, 0, 25.7337, 91093.1
7603, -0.000820312, 0.00451172, 0.031377, 0.0125098, -0.0293566, 0.0807307, 9.7782, -0.0457764, 0.0762939, -0.0152588, 25.7467, 91092.9
7613, 0, 0.00584473, 0.034248, 0.010459, -0.124766, 0.0611596, 9.86627, -0.0457764, -0.289917, 0, 25.7534, 91092.8
7623, 0.00123047, 0.00543457, 0.031377, 0.0125098, 0.00244638, 0.112534, 9.78554, -0.152588, 0.350952, -0.0457764, 25.7487, 91093.1
7633, 0.00246094, 0.00830566, 0.0317871, 0.010459, -0.0929626, 0.0513741, 9.82468, -0.0305176, -0.488281, 0.0152588, 25.749, 91092.5
7653, 0.00246094, 0.00666504, 0.0301465, 0.0108691, -0.0489277, 0.0587132, 9.77086, 0, -0.350952, 0, 25.7392, 91092.8
7663, 0.00123047, 0.00543457, 0.0330176, 0.0112793, -0.136998, 0.0587132, 9.86382, -0.0610352, 0.0457764, 0.0152588, 25.7543, 91092.9
7673, -0.00123047, 0.00543457, 0.0321973, 0.0108691, 0.00244638, 0.0880698, 9.76841, -0.12207, 0.0457764, 0, 25.7396, 91093
7683, 0, 0.00666504, 0.0301465, 0.010459, -0.122319, 0.063606, 9.8785, -0.0305176, -0.274658, 0.0152588, 25.7472, 91092.2
7693, 0.00205078, 0.00748535, 0.0326074, 0.010459, -0.0220175, 0.0905162, 9.75618, -0.106812, 0.274658, 0.0305176, 25.7512, 91093
7703, 0.000410156, 0.00748535, 0.0338379, 0.0129199, -0.0929626, 0.0709451, 9.83936, 0.0152588, -0.137329, 0.0762939, 25.7515, 91092.1
7713, 0.000410156, 0.00748535, 0.0338379, 0.0120996, -0.0880698, 0.063606, 9.82223, -0.106812, 0.0762939, 0.0152588, 25.7536, 91092.8
7723, 0.00287109, 0.00830566, 0.031377, 0.0120996, -0.0611596, 0.0978554, 9.79777, -0.137329, -0.0457764, 0.0610352, 25.7545, 91092.9
7743, 0.00287109, 0.00625488, 0.0326074, 0.0137402, -0.11498, 0.0660524, 9.78554, -0.198364, -0.137329, 0.0457764, 25.7556, 91092.3
7753, 0.00164062, 0.00625488, 0.031377, 0.00953613, -0.031803, 0.0782843, 9.81979, -0.137329, 0.0915527, 0.0610352, 25.7498, 91092.8
7763, 0.00164062, 0.00666504, 0.031377, 0.0141504, -0.0905162, 0.0464813, 9.81, -0.12207, -0.259399, 0, 25.7472, 91092.2
7773, 0.00123047, 0.00666504, 0.031377, 0.0108691, -0.0366958, 0.0856234, 9.79532, -0.0610352, 0.152588, 0.0152588, 25.7482, 91093
7783, 0.00123047, 0.00451172, 0.0317871, 0.0112793, -0.0464813, 0.063606, 9.85893, -0.12207, -0.0762939, 0.0152588, 25.7518, 91092.3
7793, -0.000410156, 0.00666504, 0.0317871, 0.0112793, -0.154122, 0.0562668, 9.77575, -0.137329, -0.137329, 0, 25.7486, 91093
7803, 0.00287109, 0.00666504, 0.0334277, 0.0112793, -0.0122319, 0.0807307, 9.82468, -0.0762939, 0.183105, 0.0152588, 25.7534, 91093.4
7823, 0.00287109, 0.00871582, 0.0305566, 0.0137402, -0.0391421, 0.105195, 9.79288, -0.12207, 0.228882, -0.0457764, 25.7499, 91093.2
7833, 0.00287109, 0.00584473, 0.0347607, 0.0100488, -0.0464813, 0.0562668, 9.86871, -0.12207, -0.198364, -0.0152588, 25.7558, 91092.6
7843, 0.00328125, 0.00543457, 0.0326074, 0.0129199, -0.117426, 0.0611596, 9.74639, -0.0610352, 0.137329, 0.0762939, 25.7427, 91093.7
7853, 0.000820312, 0.00543457, 0.0309668, 0.0129199, 0, 0.0660524, 9.89807, -0.0762939, -0.0305176, -0.0457764, 25.7583, 91093.3
7863, 0.000820312, 0.00543457, 0.0309668, 0.0100488, -0.171247, 0.0538205, 9.74395, 0, -0.198364, 0.0305176, 25.7448, 91093.6
7873, 0.00246094, 0.00748535, 0.0334277, 0.0137402, 0, 0.095409, 9.88584, -0.106812, 0.12207, -0.0305176, 25.7561, 91093.3
7883, 0.00123047, 0.0070752, 0.0317871, 0.0133301, -0.14189, 0.0587132, 9.76597, -0.137329, -0.183105, -0.0305176, 25.7499, 91093.3
7893, 0, 0.00871582, 0.0338379, 0.0125098, -0.00489277, 0.0807307, 9.82223, -0.12207, 0.244141, -0.0305176, 25.7564, 91092.7
7913, 0.00205078, 0.00625488, 0.0326074, 0.0108691, -0.0684988, 0.0733915, 9.82223, -0.152588, 0.0762939, 0, 25.7526, 91092.9
7923, 0.00205078, 0.00625488, 0.0326074, 0.0125098, -0.0807307, 0.0660524, 9.80266, -0.0457764, -0.167847, -0.0152588, 25.7506, 91093
7933, 0.00287109, 0.00625488, 0.0351709, 0.0120996, -0.0807307, 0.0758379, 9.81734, -0.137329, 0.106812, -0.0152588, 25.752, 91092.7
7943, 0.00369141, 0.00666504, 0.0297363, 0.0141504, -0.0587132, 0.0880698, 9.81734, -0.0457764, -0.137329, 0.0152588, 25.756, 91092.7
7953, 0.00123047, 0.00666504, 0.0317871, 0.0141504, -0.0684988, 0.0807307, 9.82468, -0.137329, 0.0457764, -0.0610352, 25.7628, 91092.9
7963, 0.00164062, 0.00666504, 0.0317871, 0.0129199, -0.0782843, 0.105195, 9.80021, -0.0915527, -0.213623, 0.0610352, 25.7545, 91092.7
7973, 0.00164062, 0.00502441, 0.0317871, 0.0133301, -0.0464813, 0.0807307, 9.82712, -0.106812, 0.0762939, 0.0305176, 25.7565, 91093.1
7993, 0.00369141, 0.00666504, 0.0321973, 0.0129199, -0.0562668, 0.063606, 9.80755, 0, 0.198364, -0.0152588, 25.7511, 91092.6
8003, 0.00205078, 0.00871582, 0.034248, 0.0129199, -0.0905162, 0.0464813, 9.82223, -0.137329, -0.0610352, -0.0457764, 25.7428, 91093.1
8013, 0.00246094, 0.00871582, 0.0317871, 0.0116895, -0.0929626, 0.0611596, 9.80021, -0.0152588, -0.0457764, 0, 25.7542, 91093.1
8023, 0.00246094, 0.00748535, 0.0317871, 0.0150732, -0.0684988, 0.0587132, 9.81734, 0.0457764, -0.0457764, -0.0305176, 25.7453, 91093.3
8033, 0.00164062, 0.00543457, 0.0347607, 0.0125098, -0.0660524, 0.0733915, 9.81489, -0.0762939, 0.0610352, 0, 25.742, 91093.3
8043, 0.00123047, 0.00451172, 0.0317871, 0.0133301, -0.0464813, 0.0782843, 9.83202, -0.0305176, -0.0610352, 0.0152588, 25.7609, 91093
8053, 0.00205078, 0.00625488, 0.031377, 0.0120996, -0.063606, 0.0807307, 9.80021, -0.0915527, 0.0152588, 0.0457764, 25.7557, 91093.4
8063, 0.00287109, 0.00748535, 0.031377, 0.0120996, -0.0538205, 0.100302, 9.81979, -0.106812, -0.0152588, -0.0305176, 25.7586, 91093.4
8083, 0.000820312, 0.00502441, 0.0355811, 0.0137402, -0.0709451, 0.0660524, 9.81979, -0.106812, -0.167847, -0.0305176, 25.7494, 91093.9
8093, 0.00287109, 0.00748535, 0.034248, 0.0137402, -0.0709451, 0.0782843, 9.81489, -0.12207, 0.0610352, -0.0152588, 25.7481, 91093
8103, 0.00123047, 0.00584473, 0.031377, 0.0120996, -0.0562668, 0.0709451, 9.80266, -0.12207, -0.0305176, -0.0152588, 25.7418, 91093.6
8113, 0.00246094, 0.00625488, 0.031377, 0.0120996, -0.063606, 0.0611596, 9.81734, -0.0762939, 0.0915527, 0.0762939, 25.7498, 91093.5
8123, -0.000410156, 0.00625488, 0.0321973, 0.0129199, -0.095409, 0.0611596, 9.82223, -0.0762939, -0.0152588, 0, 25.7601, 91093.5
8133, -0.000410156, 0.00625488, 0.0321973, 0.0129199, -0.0782843, 0.0464813, 9.82468, -0.0305176, -0.0152588, 0, 25.7559, 91093.1
8143, 0.00410156, 0.00748535, 0.0317871, 0.010459, -0.063606, 0.0611596, 9.80266, -0.0457764, 0, -0.0305176, 25.7423, 91093
8163, 0.00205078, 0.0070752, 0.034248, 0.0112793, -0.0587132, 0.0709451, 9.80021, -0.0915527, -0.0305176, 0.0305176, 25.7478, 91093.3
8173, 0.000410156, 0.0070752, 0.0317871, 0.0112793, -0.0684988, 0.0782843, 9.81734, -0.0152588, 0.0152588, 0.0152588, 25.7486, 91093.5
8183, 0.000410156, 0.00789551, 0.0317871, 0.0125098, -0.0831771, 0.0929626, 9.79777, -0.106812, 0.0152588, 0.0152588, 25.7536, 91093.3
8193, 0.00164062, 0.00871582, 0.0305566, 0.0108691, -0.0782843, 0.095409, 9.83202, -0.0915527, -0.0762939, 0.0610352, 25.7471, 91093.3
8203, 0.00164062, 0.00543457, 0.0330176, 0.010459, -0.0758379, 0.0880698, 9.81734, -0.106812, -0.183105, 0.0152588, 25.7442, 91093
8213, 0.00205078, 0.00871582, 0.031377, 0.010459, -0.0611596, 0.0807307, 9.81489, -0.137329, 0.0305176, -0.0305176, 25.7564, 91092.7
8223, 0.000820312, 0.00871582, 0.0305566, 0.0137402, -0.0415885, 0.0660524, 9.79288, -0.152588, -0.0915527, 0.0457764, 25.7534, 91093.2
8233, 0.000820312, 0.00451172, 0.0305566, 0.0141504, -0.0782843, 0.0587132, 9.81489, -0.0762939, 0.0915527, 0, 25.7503, 91093
8253, 0.00164062, 0.0070752, 0.034248, 0.0116895, -0.0880698, 0.0660524, 9.82712, -0.106812, 0.0305176, 0.0305176, 25.7439, 91092.9
8263, 0.00246094, 0.00584473, 0.0309668, 0.0100488, -0.0709451, 0.0587132, 9.81489, -0.106812, -0.137329, -0.0152588, 25.7578, 91093.2
8273, 0, 0.00748535, 0.031377, 0.0100488, -0.0660524, 0.0709451, 9.81979, -0.0610352, 0.0305176, -0.0610352, 25.7502, 91093.3
8283, 0, 0.00748535, 0.031377, 0.00953613, -0.0709451, 0.0538205, 9.82957, -0.0610352, -0.0305176, 0, 25.766, 91093.5
8293, 0.00123047, 0.00789551, 0.0326074, 0.0129199, -0.063606, 0.063606, 9.79532, -0.0915527, 0.0152588, 0, 25.7464, 91093.2
8303, 0.00287109, 0.00748535, 0.0334277, 0.0145605, -0.0831771, 0.0587132, 9.82468, -0.0915527, -0.0915527, 0, 25.743, 91093.4
8313, 0.000820312, 0.00871582, 0.0317871, 0.0120996, -0.0660524, 0.063606, 9.78554, -0.0915527, -0.0305176, 0.0305176, 25.7555, 91093.2
8353, 0.00123047, 0.0070752, 0.0317871, 0.0116895, -0.0611596, 0.0709451, 9.79777, -0.0915527, 0.106812, 0.0457764, 25.7494, 91094
8363, 0.00328125, 0.00789551, 0.0338379, 0.0141504, -0.0856234, 0.0856234, 9.83691, -0.0915527, 0.106812, 0.0305176, 25.7455, 91093.8
8373, 0.00205078, 0.0070752, 0.0301465, 0.0141504, -0.0733915, 0.0733915, 9.80266, -0.106812, 0, 0.0152588, 25.752, 91093.7
8383, 0.00164062, 0.0070752, 0.0317871, 0.0141504, -0.0856234, 0.0782843, 9.82712, -0.0305176, 0.0762939, -0.0305176, 25.7391, 91093.2
8393, 0.00164062, 0.00584473, 0.0317871, 0.0141504, -0.0611596, 0.0758379, 9.79532, 0.0152588, -0.0305176, -0.0457764, 25.7611, 91093.3
8403, 0, 0.00830566, 0.0330176, 0.0116895, -0.0807307, 0.0880698, 9.82712, -0.0762939, 0.152588, 0.0762939, 25.7501, 91093.7
8413, 0.00164062, 0.00748535, 0.0305566, 0.0137402, -0.0562668, 0.0905162, 9.81245, -0.0610352, -0.0610352, 0.0152588, 25.7571, 91094.4
8423, 0.000820312, 0.00502441, 0.0347607, 0.0137402, -0.0758379, 0.0856234, 9.83936, -0.0762939, 0.0305176, 0.0610352, 25.7579, 91093.2
8443, 0.00123047, 0.00830566, 0.0326074, 0.0137402, -0.063606, 0.0660524, 9.81979, -0.106812, 0.12207, 0.0152588, 25.7593, 91094.2
8453, 0.00205078, 0.00666504, 0.0338379, 0.0129199, -0.0733915, 0.0709451, 9.79777, -0.0915527, -0.0762939, 0.0915527, 25.7555, 91094.3
8463, 0, 0.0070752, 0.0347607, 0.0129199, -0.0782843, 0.0782843, 9.83446, -0.137329, 0.12207, -0.0305176, 25.7493, 91093.4
8473, 0, 0.00625488, 0.0297363, 0.0125098, -0.0562668, 0.0562668, 9.80755, -0.106812, -0.0610352, 0, 25.7517, 91093.1
8483, 0.000820312, 0.00625488, 0.0321973, 0.0125098, -0.063606, 0.0782843, 9.79288, -0.137329, 0.0610352, 0, 25.7584, 91093.5
8493, -0.000410156, 0.00625488, 0.0321973, 0.0137402, -0.0684988, 0.0611596, 9.80511, -0.0762939, -0.12207, -0.0457764, 25.7563, 91093
8503, -0.000410156, 0.0070752, 0.0330176, 0.0116895, -0.0587132, 0.063606, 9.82712, -0.137329, 0.0152588, 0.0610352, 25.7548, 91094
8523, 0.00123047, 0.00502441, 0.0359912, 0.0133301, -0.0782843, 0.0660524, 9.81489, -0.0610352, 0.0305176, 0, 25.7571, 91093.4
8533, 0.000820312, 0.00625488, 0.0334277, 0.0133301, -0.0684988, 0.0660524, 9.83202, -0.0610352, -0.0915527, 0, 25.751, 91093.6
8543, 0.00328125, 0.00625488, 0.0321973, 0.0112793, -0.0538205, 0.0562668, 9.80021, -0.0610352, -0.0305176, 0.0305176, 25.7576, 91093.7
8553, 0.00328125, 0.00666504, 0.0321973, 0.0108691, -0.0660524, 0.0611596, 9.81979, -0.0915527, 0.0152588, 0.0457764, 25.7509, 91093.1
8563, -0.000820312, 0.00451172, 0.0326074, 0.0141504, -0.0513741, 0.0831771, 9.80755, -0.0762939, -0.0762939, 0, 25.7505, 91093.6
8573, 0.000820312, 0.00789551, 0.0338379, 0.0133301, -0.0929626, 0.0684988, 9.83202, -0.137329, -0.0152588, 0.0152588, 25.7522, 91093.1
8583, 0.00164062, 0.00871582, 0.0334277, 0.0133301, -0.0660524, 0.0733915, 9.79532, -0.12207, -0.0457764, -0.0305176, 25.7575, 91093
8593, 0, 0.00871582, 0.0330176, 0.0125098, -0.0856234, 0.0758379, 9.81734, -0.0305176, -0.0305176, -0.0457764, 25.7641, 91093.6
8613, 0, 0.00830566, 0.0305566, 0.0116895, -0.0538205, 0.0782843, 9.83446, -0.0762939, 0.0152588, 0, 25.758, 91093.4
8623, 0.00246094, 0.00789551, 0.0321973, 0.0112793, -0.0489277, 0.0758379, 9.81, -0.0610352, -0.0152588, 0.0305176, 25.7627, 91092.6
8633, -0.00164062, 0.00666504, 0.0330176, 0.0112793, -0.063606, 0.0733915, 9.82957, -0.0610352, 0.0915527, 0.0152588, 25.7585, 91093.2
8643, 0.00287109, 0.00666504, 0.0334277, 0.0125098, -0.0807307, 0.0489277, 9.81245, -0.0762939, 0, 0, 25.7497, 91094.1
8653, 0.00287109, 0.00502441, 0.0334277, 0.0141504, -0.0758379, 0.0489277, 9.82223, -0.0305176, 0.0152588, 0.0457764, 25.7584, 91094
8663, -0.000410156, 0.00502441, 0.0330176, 0.0120996, -0.0831771, 0.0660524, 9.82957, -0.106812, -0.152588, 0.0152588, 25.7493, 91093.8
8673, 0.00123047, 0.00369141, 0.0326074, 0.0120996, -0.0684988, 0.0856234, 9.81734, -0.137329, 0.0152588, -0.0152588, 25.7681, 91093.5
8693, 0.00205078, 0.00748535, 0.0330176, 0.00953613, -0.0464813, 0.063606, 9.80755, -0.106812, 0.0152588, -0.0152588, 25.7645, 91093.8
8703, 0.000410156, 0.00912598, 0.0330176, 0.0116895, -0.0587132, 0.0758379, 9.81734, -0.12207, 0.0152588, 0.0152588, 25.7578, 91094
8713, 0.000410156, 0.00748535, 0.0317871, 0.0120996, -0.0831771, 0.0611596, 9.81489, -0.0457764, -0.0457764, 0.0152588, 25.7548, 91093.3
8723, 0, 0.00543457, 0.0326074, 0.0133301, -0.0733915, 0.0660524, 9.81, -0.137329, -0.0152588, -0.0305176, 25.7678, 91094
8733, -0.00246094, 0.00502441, 0.0321973, 0.0120996, -0.0880698, 0.063606, 9.81245, -0.106812, -0.0152588, 0.0762939, 25.7584, 91094.2
8743, 0.00246094, 0.00789551, 0.0321973, 0.0120996, -0.0880698, 0.0464813, 9.81245, -0.137329, 0, -0.0305176, 25.76, 91094.1
8753, 0.00287109, 0.00789551, 0.0334277, 0.010459, -0.0366958, 0.0782843, 9.81, -0.0762939, -0.0152588, 0.0152588, 25.7534, 91094.3
8763, 0.00287109, 0.0070752, 0.0334277, 0.0133301, -0.0807307, 0.0782843, 9.81734, -0.0762939, -0.0152588, 0.0152588, 25.7561, 91093.4
8783, 0.00164062, 0.00666504, 0.0326074, 0.0120996, -0.0807307, 0.0856234, 9.82712, -0.0152588, -0.137329, 0, 25.7478, 91094.4
8793, 0.00123047, 0.00543457, 0.031377, 0.0120996, -0.0709451, 0.0905162, 9.81, -0.106812, -0.0152588, 0.0305176, 25.7655, 91094.1
8803, 0.000410156, 0.00543457, 0.0317871, 0.0112793, -0.0733915, 0.0709451, 9.83936, -0.152588, -0.0915527, 0, 25.7643, 91094.5
8813, 0.000410156, 0.00502441, 0.0317871, 0.0133301, -0.0733915, 0.0660524, 9.79777, -0.137329, 0.0457764, 0.0152588, 25.7648, 91093.6
8823, 0.00205078, 0.00789551, 0.0309668, 0.00912598, -0.0538205, 0.0660524, 9.82468, -0.137329, -0.0152588, 0.0305176, 25.7581, 91094.9
8833, 0.00205078, 0.0070752, 0.0326074, 0.0116895, -0.0611596, 0.0562668, 9.80021, -0.0457764, 0.0152588, 0.0152588, 25.7485, 91094.2
8843, 0.00123047, 0.00543457, 0.031377, 0.0116895, -0.0758379, 0.0562668, 9.81979, -0.106812, 0.0152588, -0.0457764, 25.7643, 91094.2
8863, 0.00164062, 0.00625488, 0.0338379, 0.0145605, -0.0709451, 0.0684988, 9.82468, -0.106812, 0.137329, 0.0305176, 25.7533, 91093.9
8873, 0.00164062, 0.0070752, 0.0334277, 0.010459, -0.0440349, 0.0831771, 9.79532, -0.12207, -0.0152588, -0.0457764, 25.7507, 91094.5
8883, 0.000410156, 0.00666504, 0.0338379, 0.010459, -0.0758379, 0.063606, 9.81979, -0.137329, 0.0152588, -0.0152588, 25.758, 91093.8
8893, 0.00123047, 0.00625488, 0.0317871, 0.0120996, -0.0538205, 0.0758379, 9.80021, -0.12207, -0.0610352, 0.0152588, 25.7531, 91094.1
8903, 0.000820312, 0.00625488, 0.031377, 0.0120996, -0.0733915, 0.0684988, 9.82223, -0.0610352, -0.0915527, 0, 25.7608, 91093.5
8913, 0.000820312, 0.00871582, 0.031377, 0.0141504, -0.0807307, 0.0660524, 9.79043, -0.0762939, 0.12207, -0.0610352, 25.7571, 91093.9
8923, 0.000820312, 0.00625488, 0.031377, 0.0137402, -0.0807307, 0.0611596, 9.82223, -0.106812, 0, -0.0152588, 25.7656, 91093.7
8933, -0.000820312, 0.00625488, 0.0326074, 0.0108691, -0.0978554, 0.0587132, 9.81734, -0.12207, -0.0457764, 0.0305176, 25.75, 91094.1
8953, 0.000410156, 0.00543457, 0.0317871, 0.0108691, -0.0758379, 0.0782843, 9.80021, -0.0305176, -0.152588, 0.0152588, 25.7658, 91094.1
8963, 0.00205078, 0.00543457, 0.0317871, 0.0137402, -0.0562668, 0.0880698, 9.81, -0.0305176, 0.0610352, 0.0457764, 25.7524, 91094
8973, 0.00205078, 0.00584473, 0.0317871, 0.0112793, -0.063606, 0.0831771, 9.82712, -0.0762939, -0.152588, -0.0152588, 25.7534, 91093.7
8983, 0.00205078, 0.00543457, 0.0321973, 0.0129199, -0.063606, 0.100302, 9.79777, -0.12207, 0.152588, 0.0610352, 25.7557, 91094.4
8993, 0.00205078, 0.00410156, 0.0321973, 0.0100488, -0.0660524, 0.0684988, 9.81489, -0.0762939, -0.0915527, -0.0610352, 25.7627, 91094.1
9003, 0, 0.00625488, 0.0330176, 0.0100488, -0.063606, 0.0538205, 9.81979, -0.0610352, 0.0457764, 0.0152588, 25.7531, 91094.6
9013, -0.000410156, 0.00625488, 0.0338379, 0.0116895, -0.063606, 0.0929626, 9.81245, -0.0915527, 0, -0.0152588, 25.7536, 91094.1
9023, -0.000410156, 0.00625488, 0.0338379, 0.0141504, -0.0684988, 0.0929626, 9.80755, -0.0457764, 0.0762939, -0.0152588, 25.7621, 91094
9043, 0.00164062, 0.00625488, 0.0326074, 0.0120996, -0.0538205, 0.0929626, 9.81245, -0.0305176, 0.0457764, -0.0610352, 25.7572, 91094.4
9053, 0.00164062, 0.00666504, 0.031377, 0.0120996, -0.0905162, 0.0905162, 9.81245, -0.0915527, -0.0762939, -0.0610352, 25.7544, 91094.6
9063, 0.00287109, 0.00666504, 0.0351709, 0.0141504, -0.0538205, 0.0684988, 9.80511, -0.137329, -0.0305176, -0.0305176, 25.7506, 91094.1
9073, 0.00287109, 0.00789551, 0.0351709, 0.0129199, -0.095409, 0.0538205, 9.81245, -0.0762939, -0.0305176, -0.0457764, 25.761, 91094.2
9083, 0.00328125, 0.0070752, 0.0301465, 0.0137402, -0.0733915, 0.0513741, 9.80755, -0.106812, 0.106812, -0.0762939, 25.7608, 91094.2
9093, 0.00205078, 0.00789551, 0.0301465, 0.0150732, -0.100302, 0.0611596, 9.83446, -0.0305176, 0.0305176, -0.0305176, 25.7482, 91094.4
9103, -0.00246094, 0.00410156, 0.0321973, 0.0120996, -0.063606, 0.0684988, 9.81, -0.0305176, 0.137329, -0.0305176, 25.7521, 91093.5
9143, 0.000410156, 0.0070752, 0.0334277, 0.0133301, -0.0782843, 0.105195, 9.81734, -0.12207, -0.137329, -0.0152588, 25.7561, 91093.6
9153, 0.00205078, 0.00748535, 0.031377, 0.0125098, -0.0611596, 0.0856234, 9.82468, -0.228882, -0.0762939, 0.0457764, 25.7541, 91094
9163, 0, 0.00748535, 0.0347607, 0.0125098, -0.063606, 0.0660524, 9.80755, -0.183105, -0.152588, 0.0152588, 25.7454, 91094.3
9173, 0.000410156, 0.00625488, 0.0321973, 0.0141504, -0.0807307, 0.0513741, 9.81245, -0.12207, 0.0762939, 0.0610352, 25.7568, 91093.5
9183, 0.000410156, 0.0070752, 0.0321973, 0.0133301, -0.0464813, 0.0220175, 9.80511, -0.0915527, -0.167847, 0.0305176, 25.7642, 91094.2
9193, 0.000410156, 0.00584473, 0.0321973, 0.0125098, -0.0880698, 0.0513741, 9.82223, -0.0762939, -0.0305176, 0.0915527, 25.7659, 91094.2
9203, 0.00164062, 0.00748535, 0.0330176, 0.0120996, -0.0440349, 0.0587132, 9.80755, -0.0457764, -0.12207, 0.0305176, 25.7621, 91094
9213, 0.00205078, 0.00543457, 0.0330176, 0.0120996, -0.0611596, 0.063606, 9.81, -0.0762939, 0.0457764, 0.0305176, 25.7591, 91094.2
9233, 0.00287109, 0.0070752, 0.0321973, 0.0120996, -0.063606, 0.0929626, 9.79532, -0.0457764, -0.0152588, 0.0305176, 25.7612, 91094.2
9243, -0.00205078, 0.00625488, 0.0321973, 0.0133301, -0.0538205, 0.0880698, 9.81979, -0.0915527, 0, -0.0305176, 25.7662, 91094.4
9253, 0, 0.00625488, 0.0301465, 0.0120996, -0.0538205, 0.095409, 9.81489, -0.167847, 0.0305176, -0.0762939, 25.7492, 91094.5
9263, 0, 0.00748535, 0.0309668, 0.0120996, -0.0684988, 0.0733915, 9.82957, -0.137329, 0.0152588, -0.0305176, 25.7598, 91094.2
9273, 0.00164062, 0.00748535, 0.0309668, 0.0112793, -0.0513741, 0.0733915, 9.82223, -0.137329, 0.137329, 0, 25.7609, 91093.8
9283, 0.00246094, 0.00584473, 0.0309668, 0.010459, -0.0684988, 0.0807307, 9.81, -0.167847, -0.0305176, 0, 25.7579, 91093.4
9293, 0.00246094, 0.00666504, 0.034248, 0.0125098, -0.0440349, 0.0440349, 9.79777, -0.0915527, 0.0915527, 0, 25.7579, 91093.9
9313, 0.00205078, 0.00748535, 0.0326074, 0.0120996, -0.0978554, 0.0758379, 9.81489, -0.0457764, 0.183105, -0.0457764, 25.7681, 91093.7
9323, 0.00164062, 0.00748535, 0.031377, 0.0120996, -0.0880698, 0.0831771, 9.83691, -0.152588, -0.0610352, -0.0152588, 25.7624, 91093.3
9333, 0.000410156, 0.00625488, 0.031377, 0.0112793, -0.0709451, 0.0905162, 9.83691, -0.0610352, -0.0915527, 0.0762939, 25.7575, 91093.8
9343, 0.000410156, 0.00666504, 0.0326074, 0.0150732, -0.0660524, 0.0929626, 9.83202, -0.0457764, -0.0762939, -0.0152588, 25.7661, 91093.7
9353, 0.00205078, 0.00625488, 0.0330176, 0.0158936, -0.0489277, 0.0978554, 9.79532, -0.12207, -0.0610352, -0.0457764, 25.7704, 91093.9
9363, -0.000820312, 0.00789551, 0.0321973, 0.0120996, -0.0611596, 0.0611596, 9.82468, -0.106812, -0.0152588, -0.0305176, 25.7698, 91093.6
9373, 0.00246094, 0.00789551, 0.0297363, 0.0120996, -0.0464813, 0.0513741, 9.80266, -0.0915527, -0.0305176, 0.0305176, 25.7722, 91093.8
9383, -0.000410156, 0.00666504, 0.0326074, 0.0120996, -0.0978554, 0.0415885, 9.82957, -0.183105, -0.0610352, 0.0457764, 25.7733, 91093.5
9403, 0.000410156, 0.00748535, 0.0317871, 0.0141504, -0.0856234, 0.0513741, 9.82468, -0.0762939, -0.152588, 0.106812, 25.7639, 91094
9413, 0.00410156, 0.00543457, 0.0317871, 0.0133301, -0.0464813, 0.0660524, 9.80021, -0.0610352, -0.137329, 0.0457764, 25.7805, 91093.8
9423, 0.000410156, 0.00625488, 0.0317871, 0.0133301, -0.0464813, 0.0978554, 9.82468, -0.0457764, -0.0762939, 0.0152588, 25.7631, 91094
9433, 0.00451172, 0.00625488, 0.0326074, 0.0108691, -0.0195711, 0.119873, 9.81489, -0.0915527, -0.213623, 0.0305176, 25.7776, 91093.7
9443, 0.00451172, 0.0070752, 0.0326074, 0.0129199, -0.0684988, 0.105195, 9.81734, -0.106812, 0.106812, 0.0457764, 25.7667, 91093.9
9453, 0.00246094, 0.00666504, 0.0317871, 0.0129199, -0.0733915, 0.063606, 9.82223, -0.152588, 0.0457764, -0.0762939, 25.7703, 91094.1
9463, 0.000820312, 0.00748535, 0.0330176, 0.0137402, -0.0929626, 0.063606, 9.81734, -0.0915527, 0.0305176, -0.0152588, 25.7743, 91094.2
9483, 0.00164062, 0.00748535, 0.0292236, 0.0129199, -0.0782843, 0.0684988, 9.82957, -0.0762939, 0.0305176, -0.0457764, 25.7791, 91093.8
9493, 0, 0.00584473, 0.0292236, 0.0129199, -0.0513741, 0.0562668, 9.80755, -0.0610352, -0.0762939, -0.0610352, 25.7655, 91094.1
9503, 0, 0.0070752, 0.0326074, 0.0112793, -0.0660524, 0.0709451, 9.82223, -0.0457764, 0.106812, -0.0305176, 25.7746, 91093.4
9513, 0.00246094, 0.00789551, 0.0347607, 0.0112793, -0.0464813, 0.0929626, 9.83446, -0.106812, -0.0457764, 0.0152588, 25.7717, 91093.6
9523, 0.00205078, 0.0070752, 0.0301465, 0.0141504, -0.0733915, 0.100302, 9.82712, -0.0610352, 0.0762939, 0.0915527, 25.7735, 91093.8
9533, 0.00369141, 0.0070752, 0.0309668, 0.0141504, -0.0709451, 0.100302, 9.82957, -0.12207, 0.0305176, 0.0152588, 25.7648, 91093.7
9543, 0.00164062, 0.00748535, 0.0309668, 0.0120996, -0.0978554, 0.0880698, 9.83202, -0.183105, -0.0457764, -0.0305176, 25.7687, 91094.1
9553, 0.00164062, 0.00543457, 0.0288135, 0.0133301, -0.063606, 0.0513741, 9.80511, -0.0915527, -0.0762939, -0.0305176, 25.7643, 91093.7
9573, 0.00246094, 0.00625488, 0.031377, 0.0108691, -0.0587132, 0.0293566, 9.80021, -0.0915527, -0.12207, 0.0152588, 25.7798, 91093.6
9583, 0.00205078, 0.00625488, 0.0305566, 0.0108691, -0.0758379, 0.0513741, 9.81489, -0.0305176, 0.0762939, -0.0457764, 25.7621, 91093.5
9593, 0.000820312, 0.00543457, 0.0317871, 0.0129199, -0.0807307, 0.0733915, 9.81979, -0.0305176, -0.0610352, 0.0610352, 25.7835, 91093.7
9603, 0.000820312, 0.0070752, 0.0317871, 0.0154834, -0.0831771, 0.0905162, 9.82223, -0.12207, -0.0305176, 0.0915527, 25.7665, 91093.7
9613, 0.00164062, 0.00584473, 0.031377, 0.0133301, -0.0660524, 0.0929626, 9.82957, -0.0762939, -0.0305176, -0.0152588, 25.7697, 91093.5
9623, 0.00246094, 0.00666504, 0.0317871, 0.0145605, -0.0562668, 0.0807307, 9.80755, -0.12207, 0.0610352, -0.0152588, 25.7605, 91093.6
9633, 0.000410156, 0.00625488, 0.0330176, 0.0145605, -0.0611596, 0.0733915, 9.81979, -0.12207, -0.0457764, 0.0457764, 25.7582, 91093.4
9653, 0.00287109, 0.0070752, 0.0330176, 0.0116895, -0.0978554, 0.0684988, 9.82223, -0.12207, -0.0915527, -0.0457764, 25.7666, 91092.4
9663, 0.000410156, 0.00789551, 0.0326074, 0.0137402, -0.0611596, 0.0538205, 9.76597, -0.137329, 0.152588, 0.0457764, 25.7559, 91093.2
9673, 0.00205078, 0.0070752, 0.0309668, 0.0112793, -0.0978554, 0.0538205, 9.83202, -0.0762939, 0.0152588, 0.0152588, 25.7632, 91093.1
9683, 0.00123047, 0.00953613, 0.0321973, 0.0112793, -0.0366958, 0.0782843, 9.76841, -0.0457764, 0, 0.0152588, 25.7645, 91092.8
9693, 0.00287109, 0.00953613, 0.0305566, 0.0150732, -0.0978554, 0.0660524, 9.86382, -0.0610352, 0.0610352, 0, 25.7722, 91093.7
9703, 0.00369141, 0.0070752, 0.0305566, 0.0141504, -0.0293566, 0.0782843, 9.77575, -0.0305176, -0.0762939, 0.0457764, 25.761, 91092.8
9713, 0.00369141, 0.00543457, 0.0292236, 0.0141504, -0.0978554, 0.0758379, 9.85404, -0.0457764, 0.106812, 0.0305176, 25.7786, 91093.5
9723, 0.00287109, 0.00666504, 0.034248, 0.0141504, -0.0709451, 0.0660524, 9.82223, -0.0457764, -0.213623, 0, 25.7733, 91093.4
9743, 0, 0.00666504, 0.0301465, 0.0116895, -0.0684988, 0.0831771, 9.81489, -0.0915527, -0.106812, -0.0305176, 25.7668, 91093.6
9753, 0.00246094, 0.0070752, 0.0301465, 0.0112793, -0.0562668, 0.0782843, 9.81734, -0.106812, 0.0152588, -0.0152588, 25.7623, 91094.4
9763, 0.00246094, 0.00666504, 0.034248, 0.0100488, -0.0464813, 0.0489277, 9.79043, -0.152588, -0.0610352, 0.0457764, 25.7684, 91093.2
9773, 0.00123047, 0.00625488, 0.0301465, 0.0112793, -0.0684988, 0.0684988, 9.81489, -0.0305176, 0.0915527, 0, 25.7569, 91093.5
9783, 0, 0.00451172, 0.031377, 0.0133301, -0.063606, 0.0513741, 9.80021, -0.183105, -0.106812, -0.0457764, 25.7617, 91093.5
9793, 0.00328125, 0.00451172, 0.0334277, 0.0133301, -0.107641, 0.0489277, 9.82223, -0.106812, 0.137329, -0.0610352, 25.7704, 91093.8
9803, 0.000820312, 0.00543457, 0.0309668, 0.0116895, -0.0513741, 0.0562668, 9.79777, -0.0915527, -0.0915527, -0.0610352, 25.7799, 91094.3
9823, 0.000820312, 0.00584473, 0.0334277, 0.0133301, -0.0709451, 0.0929626, 9.82712, -0.0610352, 0.0152588, 0.0457764, 25.7788, 91094.2
9833, 0.00164062, 0.00625488, 0.0334277, 0.0133301, -0.0513741, 0.095409, 9.83936, -0.12207, 0.0152588, -0.0610352, 25.7653, 91094
9843, 0.000820312, 0.00625488, 0.0321973, 0.0133301, -0.0782843, 0.0709451, 9.81734, -0.0152588, -0.0915527, 0.0305176, 25.7786, 91093.4
9853, 0.00369141, 0.00748535, 0.0297363, 0.0150732, -0.0831771, 0.0562668, 9.82957, -0.137329, 0.106812, -0.0152588, 25.774, 91093.6
9863, 0.00369141, 0.00666504, 0.0297363, 0.0108691, -0.0758379, 0.0880698, 9.81979, -0.152588, -0.198364, -0.0762939, 25.7781, 91093.9
9873, -0.000820312, 0.00625488, 0.0317871, 0.0137402, -0.0831771, 0.0709451, 9.8418, -0.106812, 0.0457764, -0.0305176, 25.7793, 91094.3
9883, 0.00410156, 0.00625488, 0.0309668, 0.0150732, -0.0587132, 0.0758379, 9.81245, -0.137329, -0.259399, -0.0305176, 25.7737, 91093.7
9893, 0.00164062, 0.0070752, 0.0309668, 0.0150732, -0.0464813, 0.0684988, 9.79532, -0.152588, 0.183105, -0.0152588, 25.7681, 91094.4
9933, 0.00369141, 0.00748535, 0.031377, 0.0141504, -0.0513741, 0.095409, 9.80266, -0.0305176, -0.0762939, 0.0305176, 25.7665, 91093.5
9943, 0.000820312, 0.00584473, 0.031377, 0.0141504, -0.112534, 0.0733915, 9.83446, -0.106812, 0.106812, 0.0610352, 25.7674, 91093.7
9953, 0.00246094, 0.00584473, 0.031377, 0.0125098, -0.0538205, 0.0880698, 9.80021, -0.0610352, -0.137329, 0.0457764, 25.7695, 91093.5
9963, 0.00328125, 0.0070752, 0.031377, 0.0108691, -0.0807307, 0.0782843, 9.81979, -0.152588, 0.0457764, 0.0457764, 25.7677, 91093.5
9973, 0.00328125, 0.00625488, 0.0330176, 0.0125098, -0.0587132, 0.0684988, 9.79532, -0.213623, -0.137329, 0.0305176, 25.7731, 91093.7
9983, 0.00164062, 0.00410156, 0.0305566, 0.0141504, -0.0880698, 0.0489277, 9.82223, -0.0762939, -0.0610352, -0.0610352, 25.77, 91093.4
9993, 0.00410156, 0.00584473, 0.0326074, 0.0145605, -0.0146783, 0.063606, 9.76841, -0.106812, -0.0457764, 0, 25.7781, 91093.8
10013, 0.000820312, 0.00871582, 0.0326074, 0.0120996, -0.0366958, 0.0807307, 9.80021, -0.0762939, -0.106812, 0.0457764, 25.7681, 91093.6
10023, 0.000820312, 0.00789551, 0.0326074, 0.0120996, -0.0758379, 0.0758379, 9.83936, -0.0610352, 0.152588, 0.0152588, 25.7661, 91093
10033, 0.000820312, 0.00830566, 0.0321973, 0.0141504, -0.063606, 0.0684988, 9.80021, -0.106812, -0.244141, -0.0152588, 25.7737, 91093.4
10043, 0.000820312, 0.00871582, 0.031377, 0.0125098, -0.0513741, 0.063606, 9.81979, -0.137329, 0.228882, 0.0152588, 25.7657, 91093.9
10053, -0.000820312, 0.00871582, 0.0321973, 0.0125098, -0.102748, 0.0562668, 9.82957, -0.0762939, -0.244141, -0.0457764, 25.7633, 91093.4
10063, 0.00328125, 0.00666504, 0.0305566, 0.0120996, -0.0587132, 0.0660524, 9.82468, -0.0457764, 0.0762939, 0.0762939, 25.7808, 91093.6
10073, 0.00328125, 0.00666504, 0.0305566, 0.0120996, -0.110087, 0.247085, 9.73172, 0.0915527, -0.0915527, 0.0915527, 25.7684, 91093.6
10083, -0.000820312, 0.00748535, 0.031377, 0.0108691, -0.288673, 0.296012, 10.2308, -0.38147, 0.106812, 0.0915527, 25.7743, 91093.8
10103, -0.000820312, 0.00748535, 0.0317871, 0.0112793, 0.0587132, -0.254424, 9.6779, -0.152588, 1.11389, -0.0610352, 25.7698, 91093.8
10113, 0.00164062, 0.00748535, 0.0317871, 0.0120996, 0.0489277, -0.0513741, 9.71948, 0.12207, -0.38147, -0.0762939, 25.7803, 91094
10123, 0.00164062, 0.00748535, 0.0317871, 0.0116895, -0.198157, 0.0831771, 9.89318, 0.0915527, 0.915527, -0.0457764, 25.774, 91093.6
10133, 0.00164062, 0.00830566, 0.0334277, 0.0100488, -0.171247, 0.0782843, 9.86137, 0.0457764, -0.595093, 0.0457764, 25.7786, 91092.8
10143, 0.00287109, 0.00748535, 0.0317871, 0.0133301, -0.166354, 0.222621, 9.88829, 0.0152588, 0.427246, 0.0152588, 25.7545, 91093
10153, 0.000410156, 0.00584473, 0.0347607, 0.0133301, -0.151676, 0.107641, 9.87605, -0.0610352, -0.778198, 0, 25.774, 91093.4
10163, 0.00287109, 0.00584473, 0.0305566, 0.0125098, 0.0758379, 0.0856234, 9.74639, -0.0915527, 0.335693, -0.0762939, 25.7714, 91093.1
10183, 0.00246094, 0.00871582, 0.0326074, 0.0129199, 0.0684988, 0.0978554, 9.73661, -0.259399, 0.0610352, 0.0305176, 25.7675, 91094.1
10193, 0.00246094, 0.0070752, 0.0321973, 0.0116895, -0.14189, 0.0195711, 9.88095, -0.152588, 0.0610352, -0.0305176, 25.7756, 91093.9
10203, 0.00205078, 0.00410156, 0.0330176, 0.0141504, -0.0758379, -0.0146783, 9.74395, -0.0762939, 0.228882, 0.0610352, 25.7813, 91094
10213, 0.00164062, 0.00410156, 0.0317871, 0.0141504, -0.144337, -0.0415885, 9.81979, -0.0610352, -0.335693, -0.0457764, 25.7801, 91093.4
10223, 0.00205078, 0.00748535, 0.0292236, 0.0129199, -0.107641, 0.0513741, 9.82468, 0.0305176, 0.0610352, -0.0305176, 25.7608, 91093.4
10233, 0.00205078, 0.00912598, 0.0292236, 0.0145605, -0.0293566, 0.14189, 9.82712, -0.0305176, -0.198364, 0.0305176, 25.7867, 91093.5
10243, 0.000820312, 0.00625488, 0.0321973, 0.0120996, -0.0562668, 0.159015, 9.86627, -0.106812, 0.12207, 0.0305176, 25.7807, 91093.2
10253, -0.000820312, 0.00543457, 0.0317871, 0.0116895, -0.0122319, 0.129658, 9.80511, -0.183105, -0.0152588, -0.0152588, 25.7772, 91093.4
10273, 0.000820312, 0.0070752, 0.0330176, 0.00912598, -0.0856234, 0.0342494, 9.79532, -0.0762939, -0.0610352, -0.0457764, 25.7772, 91093.1
10283, 0.00205078, 0.00830566, 0.0330176, 0.0120996, -0.0782843, 0.0489277, 9.80511, -0.152588, -0.0915527, -0.0305176, 25.772, 91093.2
10293, 0.00205078, 0.00666504, 0.0321973, 0.0129199, -0.0856234, 0.0611596, 9.82957, -0.12207, -0.0152588, -0.0610352, 25.7726, 91093.3
10303, -0.00123047, 0.00789551, 0.0309668, 0.0133301, -0.0464813, 0.0782843, 9.81, -0.0762939, -0.0152588, -0.0152588, 25.7851, 91093.6
10313, 0.000410156, 0.00789551, 0.0330176, 0.0133301, -0.0513741, 0.0587132, 9.80266, -0.0762939, 0, -0.0457764, 25.7751, 91094.1
10323, 0.000410156, 0.00789551, 0.0305566, 0.0125098, -0.0660524, 0.0513741, 9.82223, -0.0610352, 0, 0.0305176, 25.7694, 91092.9
10333, 0.00246094, 0.00584473, 0.0305566, 0.0133301, -0.0513741, 0.0905162, 9.80266, -0.0152588, 0.0915527, 0, 25.7816, 91093
10353, 0, 0.00625488, 0.0309668, 0.0125098, -0.0587132, 0.105195, 9.82223, -0.12207, -0.106812, 0.0457764, 25.7751, 91093.5
10363, 0.000410156, 0.00584473, 0.0330176, 0.0125098, -0.107641, 0.0807307, 9.8418, -0.106812, -0.106812, 0.0457764, 25.7773, 91093.3
10373, 0.000820312, 0.00584473, 0.034248, 0.0150732, -0.0244638, 0.0562668, 9.76841, -0.137329, 0.0457764, 0, 25.7816, 91093.3
10383, 0.00123047, 0.00789551, 0.034248, 0.0133301, -0.0758379, 0.00978554, 9.81734, -0.0457764, -0.0457764, -0.0305176, 25.7752, 91093.6
10393, 0.00123047, 0.00666504, 0.0317871, 0.0116895, -0.0489277, 0.0489277, 9.78554, -0.0457764, 0.0762939, 0.0305176, 25.7732, 91093.3
10403, 0, 0.00502441, 0.0334277, 0.010459, -0.0880698, 0.0856234, 9.84425, -0.0305176, -0.137329, 0.0610352, 25.7764, 91093.9
10413, 0.00205078, 0.00871582, 0.0347607, 0.0137402, -0.0782843, 0.0880698, 9.81489, -0.0762939, 0.106812, -0.0152588, 25.7722, 91094
10423, 0.00164062, 0.00871582, 0.031377, 0.0137402, -0.0782843, 0.0807307, 9.82957, -0.0915527, -0.137329, -0.0457764, 25.777, 91093.7
10443, 0.000820312, 0.00666504, 0.034248, 0.0116895, -0.0538205, 0.0758379, 9.82223, -0.0610352, -0.198364, 0, 25.7795, 91093.7
10453, 0.00123047, 0.010459, 0.0330176, 0.0129199, -0.0391421, 0.0856234, 9.79777, -0.106812, 0.106812, -0.0305176, 25.7773, 91092.7
10463, 0.00205078, 0.00584473, 0.031377, 0.0120996, -0.0733915, 0.063606, 9.82957, -0.213623, -0.0457764, 0.0457764, 25.7761, 91092.9
10473, -0.00123047, 0.00584473, 0.0317871, 0.0120996, -0.063606, 0.0782843, 9.81245, -0.137329, 0.0915527, 0, 25.7804, 91092.9
10483, 0.00123047, 0.00748535, 0.0334277, 0.0133301, -0.0856234, 0.0660524, 9.81734, -0.0762939, -0.106812, 0, 25.7828, 91093.6
10493, -0.00164062, 0.00451172, 0.0334277, 0.0129199, -0.0880698, 0.0538205, 9.81245, -0.0305176, -0.0152588, 0.0610352, 25.7763, 91093.2
10503, -0.00164062, 0.0070752, 0.0326074, 0.0141504, -0.0807307, 0.063606, 9.81979, -0.0610352, -0.0457764, 0.0457764, 25.7786, 91093.7
10513, 0.00246094, 0.00584473, 0.031377, 0.0129199, -0.0660524, 0.0660524, 9.82957, -0.0610352, -0.0152588, 0.0152588, 25.7846, 91093.2
10533, 0.000410156, 0.00830566, 0.0334277, 0.0100488, -0.0684988, 0.0831771, 9.81734, -0.0915527, 0.0457764, 0.0152588, 25.7734, 91093.2
10543, 0.00205078, 0.00625488, 0.0334277, 0.0120996, -0.0489277, 0.0831771, 9.81489, -0.0915527, -0.0305176, 0.0305176, 25.7734, 91093.1
10553, 0.00205078, 0.0070752, 0.0309668, 0.0116895, -0.0880698, 0.0758379, 9.82223, -0.0610352, 0.0762939, 0, 25.7786, 91092.8
10563, 0.00123047, 0.00871582, 0.0305566, 0.0125098, -0.063606, 0.0758379, 9.81245, -0.0610352, -0.137329, 0, 25.7803, 91093.5
10573, 0.00287109, 0.00789551, 0.0317871, 0.0125098, -0.0831771, 0.0782843, 9.83936, -0.167847, 0.0152588, -0.0152588, 25.7849, 91092.8
10583, 0.00287109, 0.00789551, 0.0317871, 0.0116895, -0.0587132, 0.0660524, 9.79043, -0.137329, -0.0915527, 0.0152588, 25.7775, 91093.7
10593, -0.000820312, 0.00502441, 0.0317871, 0.0112793, -0.0562668, 0.0733915, 9.81245, -0.0305176, -0.106812, -0.0305176, 25.7761, 91094
10613, 0.00205078, 0.010459, 0.0321973, 0.0129199, -0.0709451, 0.063606, 9.79777, -0.0762939, 0.0305176, -0.0152588, 25.7783, 91093.3
10623, 0.00410156, 0.00748535, 0.0321973, 0.0116895, -0.0733915, 0.0489277, 9.79777, -0.0457764, -0.0152588, -0.0305176, 25.788, 91093.7
10633, -0.00164062, 0.00748535, 0.0338379, 0.0116895, -0.0807307, 0.0562668, 9.80755, -0.0305176, 0, 0, 25.7854, 91093.5
10643, 0.00328125, 0.00871582, 0.0338379, 0.0112793, -0.0660524, 0.0733915, 9.81245, -0.0152588, 0.0152588, -0.0152588, 25.7856, 91093.4
10653, 0.00328125, 0.00830566, 0.0317871, 0.0120996, -0.063606, 0.0807307, 9.80511, -0.0915527, -0.0152588, 0.0762939, 25.7722, 91093.2
10663, 0.00287109, 0.00830566, 0.0330176, 0.0137402, -0.0366958, 0.0905162, 9.84425, -0.0915527, -0.0305176, 0.0152588, 25.7816, 91093.6
10673, 0.00123047, 0.00748535, 0.0334277, 0.0112793, -0.0782843, 0.0709451, 9.81245, -0.167847, 0.0152588, -0.0152588, 25.778, 91093.8
10683, 0.00164062, 0.00748535, 0.0347607, 0.0112793, -0.0660524, 0.095409, 9.83202, -0.0762939, 0, -0.0152588, 25.7803, 91093
10723, 0, 0.00871582, 0.0330176, 0.0112793, -0.0660524, 0.0489277, 9.82468, -0.106812, 0.0610352, -0.0152588, 25.7721, 91093.7
10733, 0.00246094, 0.00871582, 0.0326074, 0.0112793, -0.0660524, 0.0758379, 9.82957, -0.0610352, -0.0305176, 0, 25.7793, 91093.1
10743, 0.000820312, 0.00666504, 0.0334277, 0.0125098, -0.0733915, 0.095409, 9.82468, -0.0457764, 0.0152588, -0.0305176, 25.77, 91093.2
10753, 0.00164062, 0.00410156, 0.0334277, 0.0120996, -0.0709451, 0.0856234, 9.82712, -0.0762939, -0.0915527, -0.0305176, 25.7861, 91094.3
10763, 0.00164062, 0.00871582, 0.0330176, 0.0120996, -0.0709451, 0.0758379, 9.79288, -0.12207, 0, -0.0305176, 25.7883, 91092.6
10773, 0.00164062, 0.00625488, 0.034248, 0.0141504, -0.0978554, 0.0856234, 9.96902, -0.0915527, 0.0610352, -0.0305176, 25.7817, 91093.7
10783, 0.00205078, 0.00543457, 0.0326074, 0.0141504, -0.134551, 0.112534, 9.7415, -0.137329, -0.640869, 0.0457764, 25.7863, 91093.2
10803, 0.000820312, 0.00789551, 0.0338379, 0.0116895, -0.0195711, 0.0513741, 9.80511, -0.0610352, -0.396728, -0.0305176, 25.7739, 91093.9
10813, 0.000820312, 0.00871582, 0.0326074, 0.0116895, -0.0611596, 0.0513741, 9.78798, -0.0152588, 0.656128, -0.0152588, 25.777, 91092.7
10823, 0.00502441, 0.00543457, 0.0321973, 0.0116895, -0.0733915, 0.0709451, 9.90541, -0.0152588, -0.595093, 0.0305176, 25.7856, 91093.2
10833, 0.00164062, 0.00748535, 0.0326074, 0.0112793, -0.146783, -0.0807307, 9.2033, -0.335693, -0.427246, -0.0152588, 25.78, 91093.1
10843, 0.00369141, 0.00748535, 0.0317871, 0.0112793, -0.320476, 0.653185, 10.8301, -0.50354, 1.00708, -0.152588, 25.7831, 91092.7
10853, 0.00287109, 0.00625488, 0.0330176, 0.0141504, -0.313137, -0.105195, 9.9788, -0.259399, -5.20325, -0.0762939, 25.7832, 91094
10903, 0.000410156, 0.00666504, 0.0321973, 0.0125098, -0.293566, 0.0684988, 9.62163, -0.198364, 4.11987, -0.0762939, 25.7854, 91093.5
10923, 0.00246094, 0.00543457, 0.0292236, 0.0141504, -0.599364, 0.095409, 9.2351, -0.12207, 2.02942, 0, 25.7862, 91094.2
10933, 0.00205078, 0.00584473, 0.0305566, 0.0125098, 0.596918, 0.0905162, 10.3776, 0.0762939, -0.946045, 0.12207, 25.7931, 91094.2
10943, 0.00246094, 0.00584473, 0.0317871, 0.0125098, -0.452581, 0.0489277, 9.1666, -0.213623, 0.0457764, -0.0152588, 25.7799, 91093.7
10953, 0.00246094, 0.00789551, 0.0309668, 0.0116895, 0.469706, 0.161461, 10.3653, -0.106812, 0.595093, -0.0305176, 25.7799, 91093.5
10963, -0.000410156, 0.00543457, 0.0309668, 0.0150732, -0.491723, 0.095409, 9.45038, -0.0915527, -1.17493, 0.0152588, 25.781, 91093.4
10973, -0.000410156, 0.00584473, 0.0321973, 0.0133301, 0.14189, 0.0709451, 10.1549, -0.183105, 1.09863, -0.0610352, 25.7785, 91094
10983, 0.000820312, 0.00584473, 0.0317871, 0.0120996, -0.437903, -0.00489277, 9.55802, -0.0762939, -1.38855, 0.0457764, 25.7842, 91093.3
10993, 0.00287109, 0.00748535, 0.0338379, 0.0120996, 0.159015, -0.0195711, 9.91275, -0.0152588, 1.28174, 0.0305176, 25.7727, 91093.8
11013, 0.000410156, 0.00666504, 0.0317871, 0.0125098, -0.0758379, 0.0489277, 9.88829, 0.0305176, 1.17493, 0, 25.7733, 91093.6
11023, 0.000410156, 0.00502441, 0.0321973, 0.0120996, -0.0758379, 0.124766, 9.82468, 0.0915527, -1.06812, -0.0305176, 25.7866, 91093.2
11033, 0.00164062, 0.00451172, 0.0347607, 0.0133301, -0.063606, 0.0880698, 9.85159, -0.106812, 1.00708, 0.0305176, 25.7764, 91093.5
11043, 0.00164062, 0.00451172, 0.031377, 0.0116895, -0.110087, 0.112534, 9.86382, 0.0152588, -1.00708, 0.0152588, 25.7765, 91093.2
11053, 0.00410156, 0.00451172, 0.0321973, 0.0116895, 0.00244638, 0.0880698, 9.7415, -0.198364, 0.640869, 0.0305176, 25.7793, 91093.7
11063, 0.00205078, 0.00748535, 0.0321973, 0.0125098, -0.107641, 0.0831771, 9.86137, -0.106812, -0.564575, 0.0457764, 25.7833, 91093.5
11073, 0.000410156, 0.00502441, 0.034248, 0.0137402, -0.00244638, 0.0587132, 9.72682, -0.12207, 0.442505, -0.0152588, 25.7818, 91093.5
11113, 0.00123047, 0.00584473, 0.0334277, 0.0137402, 0.0366958, 0.0562668, 9.73172, -0.0762939, 0.228882, 0, 25.7883, 91093.3
11123, 0.00287109, 0.00451172, 0.0334277, 0.0112793, -0.129658, 0.0856234, 9.90541, -0.0915527, -0.274658, -0.0305176, 25.7977, 91093.1
11133, 0.00287109, 0.00748535, 0.0321973, 0.0129199, 0.0244638, 0.105195, 9.72193, -0.12207, 0.183105, -0.0305176, 25.7896, 91093.4
11143, 0.00246094, 0.00625488, 0.031377, 0.0125098, -0.17614, 0.095409, 9.92253, -0.0915527, -0.0762939, -0.0152588, 25.7821, 91093.7
11153, 0.000820312, 0.00625488, 0.0317871, 0.0125098, -0.0366958, 0.0660524, 9.73172, -0.152588, -0.0915527, 0, 25.7929, 91094.6
11163, 0, 0.00543457, 0.0317871, 0.0141504, -0.132105, 0.031803, 9.88584, -0.12207, 0.0457764, 0.0305176, 25.7881, 91093.8
11173, 0.00164062, 0.00584473, 0.0317871, 0.0129199, -0.00978554, 0.0269102, 9.73661, -0.0610352, -0.167847, 0, 25.7818, 91094.4
11183, 0.00164062, 0.0070752, 0.034248, 0.0133301, -0.0880698, 0.0415885, 9.85159, -0.0305176, 0.0762939, -0.0457764, 25.7879, 91094.6
11203, 0.00205078, 0.0070752, 0.0309668, 0.0145605, -0.105195, 0.0782843, 9.87116, -0.0915527, 0.274658, 0.0305176, 25.7811, 91093.9
11213, 0.00328125, 0.0070752, 0.0334277, 0.0150732, -0.0562668, 0.0538205, 9.79288, -0.0305176, -0.213623, 0.0152588, 25.7846, 91094.6
11223, 0.00369141, 0.0070752, 0.0334277, 0.0137402, -0.161461, 0.0684988, 9.85404, -0.0915527, 0.244141, -0.0152588, 25.7885, 91094.5
11233, 0.00369141, 0.0070752, 0.031377, 0.0125098, -0.0415885, 0.0758379, 9.81245, 0.0915527, -0.411987, 0.0152588, 25.7929, 91094.8
11243, 0.000410156, 0.00584473, 0.0330176, 0.0116895, -0.0440349, 0.0758379, 9.79532, 0, 0.213623, 0.0457764, 25.7912, 91094.7
11253, 0, 0.00666504, 0.0317871, 0.0116895, -0.0709451, 0.0782843, 9.85404, -0.0457764, -0.12207, 0, 25.787, 91093.9
11263, 0.00287109, 0.00666504, 0.0326074, 0.0116895, -0.00489277, 0.102748, 9.79043, -0.0457764, 0.0610352, -0.0152588, 25.7855, 91094.3
11283, 0.000410156, 0.00410156, 0.0321973, 0.0145605, -0.0269102, 0.117426, 9.80511, -0.198364, -0.152588, 0, 25.8051, 91095.4
11293, 0.000410156, 0.0070752, 0.0317871, 0.0129199, -0.0758379, 0.0929626, 9.8418, -0.106812, 0.0610352, -0.0152588, 25.7865, 91094.7
11303, 0, 0.00666504, 0.0317871, 0.0133301, -0.063606, 0.0758379, 9.81245, -0.106812, -0.12207, 0.0457764, 25.7876, 91095
11313, 0.00123047, 0.00666504, 0.031377, 0.0133301, -0.063606, 0.0684988, 9.79043, -0.137329, 0.0610352, 0.0305176, 25.7768, 91095
11323, 0.00164062, 0.0070752, 0.0330176, 0.0129199, -0.107641, 0.0562668, 9.81245, -0.183105, 0.12207, 0, 25.7904, 91095.3
11333, 0.000820312, 0.00666504, 0.0330176, 0.0133301, -0.0660524, 0.0684988, 9.79777, -0.0762939, -0.106812, 0.0305176, 25.7866, 91095
11343, 0.000820312, 0.00748535, 0.0347607, 0.0112793, -0.0733915, 0.0562668, 9.81734, -0.0457764, 0.167847, 0, 25.7839, 91095.4
11353, 0.00164062, 0.00789551, 0.0321973, 0.0116895, -0.0880698, 0.063606, 9.81979, -0.0457764, -0.167847, 0.0152588, 25.7894, 91095.4
11373, 0.00369141, 0.00748535, 0.0321973, 0.0116895, -0.0391421, 0.0880698, 9.80511, -0.0457764, -0.0610352, 0.0305176, 25.7776, 91095.9
11383, 0.000410156, 0.00625488, 0.0321973, 0.0137402, -0.0366958, 0.0978554, 9.79043, 0, 0.167847, -0.0152588, 25.7862, 91095.3
11393, 0.000410156, 0.0070752, 0.031377, 0.0116895, -0.134551, 0.0709451, 9.8785, -0.137329, 0, 0.0305176, 25.79, 91095.6
11403, 0.00369141, 0.0070752, 0.0326074, 0.0137402, -0.0464813, 0.0758379, 9.78554, -0.0762939, -0.183105, -0.0305176, 25.7872, 91095.6
11413, -0.000820312, 0.0070752, 0.0326074, 0.0137402, -0.095409, 0.0342494, 9.82468, -0.152588, 0.0610352, -0.0305176, 25.7973, 91095.6
11423, 0, 0.00584473, 0.0321973, 0.0100488, -0.031803, 0.0660524, 9.79043, -0.0610352, -0.106812, -0.0610352, 25.7852, 91095
11433, 0.00123047, 0.00748535, 0.0321973, 0.0137402, -0.0709451, 0.0733915, 9.81245, -0.167847, -0.0305176, 0.0457764, 25.7811, 91095.7
11443, 0.00123047, 0.00748535, 0.0317871, 0.0120996, -0.0905162, 0.0758379, 9.84914, -0.106812, -0.0915527, 0.0610352, 25.7865, 91096.1
11463, 0.000820312, 0.00584473, 0.0317871, 0.0137402, -0.156569, 0.063606, 9.90052, -0.106812, -0.0762939, -0.106812, 25.7903, 91095.8
11473, 0.00164062, 0.00584473, 0.031377, 0.0137402, 0.0905162, 0.0905162, 9.70725, -0.152588, -0.228882, 0, 25.7813, 91095.8
11483, 0.000410156, 0.0070752, 0.031377, 0.0129199, -0.139444, 0.0513741, 9.89073, -0.213623, 0.350952, -0.0305176, 25.7838, 91095.8
11493, 0.00164062, 0.00748535, 0.0326074, 0.0133301, 0.0366958, 0.095409, 9.73661, -0.106812, -0.595093, -0.0305176, 25.7788, 91095.6
11503, 0.00164062, 0.00666504, 0.0297363, 0.0137402, -0.0807307, 0.0220175, 9.81, -0.0152588, 0.640869, 0.0457764, 25.7858, 91096.4
11513, 0.00246094, 0.00789551, 0.0326074, 0.0116895, -0.156569, 0.0464813, 9.8418, -0.0305176, -0.366211, -0.0152588, 25.7904, 91096.1
11523, 0.00164062, 0.00789551, 0.0338379, 0.0116895, -0.0513741, 0.0856234, 9.7733, -0.0762939, 0.305176, 0.0152588, 25.7834, 91096.1
11543, 0.00123047, 0.00584473, 0.0330176, 0.0129199, 0.00244638, 0.0856234, 9.7415, -0.137329, -0.0305176, 0.0305176, 25.796, 91096.7
11553, 0.00123047, 0.00543457, 0.0305566, 0.0112793, -0.0856234, 0.0831771, 9.86382, -0.12207, -0.0457764, 0.0457764, 25.7844, 91096.6
11563, 0.00369141, 0.00543457, 0.0351709, 0.0112793, -0.0122319, 0.0978554, 9.78309, -0.0305176, 0.0152588, 0, 25.7835, 91096.2
11573, 0.00246094, 0.00543457, 0.0351709, 0.0112793, -0.0978554, 0.105195, 9.84425, -0.137329, -0.12207, -0.0457764, 25.7945, 91096.4
11583, 0.00410156, 0.00871582, 0.0317871, 0.0145605, -0.0660524, 0.0587132, 9.79532, -0.106812, 0.183105, 0, 25.791, 91096.8
11593, 0.000820312, 0.00748535, 0.0317871, 0.0120996, -0.110087, 0.0489277, 9.85893, -0.0762939, -0.152588, -0.0305176, 25.795, 91096.4
11603, 0.000820312, 0.00871582, 0.0309668, 0.0125098, -0.0489277, 0.0269102, 9.77086, -0.0915527, 0.0915527, -0.0152588, 25.7918, 91096.1
11613, 0, 0.0070752, 0.0330176, 0.0137402, -0.110087, 0.0293566, 9.84425, -0.0305176, -0.0152588, 0.0305176, 25.7852, 91095.8
11633, 0.00205078, 0.00625488, 0.0330176, 0.0116895, -0.102748, 0.100302, 9.85648, 0.0305176, -0.137329, -0.0305176, 25.7882, 91097
11643, 0.00205078, 0.0070752, 0.0330176, 0.0125098, -0.00489277, 0.095409, 9.79288, -0.0915527, -0.0915527, -0.0152588, 25.7978, 91096.6
11653, 0.00205078, 0.0070752, 0.0309668, 0.0125098, -0.0709451, 0.0856234, 9.85159, -0.0610352, 0.0915527, 0.0762939, 25.7927, 91096.9
11663, 0.00123047, 0.00789551, 0.0330176, 0.0129199, -0.0171247, 0.105195, 9.77575, -0.0762939, -0.137329, 0, 25.7817, 91097
11673, 0.00328125, 0.00625488, 0.0321973, 0.0129199, -0.0807307, 0.0782843, 9.83936, -0.152588, 0.0610352, -0.0762939, 25.7854, 91096.9
11683, 0, 0.00625488, 0.0292236, 0.0125098, -0.0513741, 0.0880698, 9.79288, -0.152588, -0.0305176, -0.0915527, 25.7905, 91096.5
11693, -0.00205078, 0.0070752, 0.0292236, 0.0137402, -0.110087, 0.0562668, 9.84914, -0.183105, 0, 0.0305176, 25.7772, 91096
11713, 0.00123047, 0.00543457, 0.0326074, 0.0129199, -0.0831771, 0.0733915, 9.83691, -0.106812, 0.228882, -0.0305176, 25.7874, 91097
11723, 0.00328125, 0.00543457, 0.0326074, 0.0145605, -0.0978554, 0.0758379, 9.81245, -0.137329, -0.12207, 0, 25.7937, 91096.8
11733, 0.00246094, 0.00543457, 0.0309668, 0.0145605, -0.0978554, 0.0660524, 9.83202, -0.137329, 0.0457764, 0.0305176, 25.7856, 91096.7
11743, 0.00246094, 0.00502441, 0.0321973, 0.0108691, -0.0587132, 0.0342494, 9.79288, -0.0915527, -0.198364, 0.0457764, 25.7895, 91096.6
11753, 0.000820312, 0.00666504, 0.0321973, 0.0129199, -0.0464813, 0.0464813, 9.81489, -0.0305176, -0.0305176, 0.0762939, 25.7734, 91096.6
11763, 0.000820312, 0.00625488, 0.0309668, 0.0133301, -0.00733915, 0.0489277, 9.80511, -0.12207, -0.0305176, -0.0305176, 25.7921, 91097
11773, 0.000410156, 0.00410156, 0.0330176, 0.0108691, -0.0489277, 0.0660524, 9.79532, -0.0457764, -0.0152588, 0.0305176, 25.807, 91097.3
11783, 0, 0.00410156, 0.031377, 0.0108691, -0.0464813, 0.100302, 9.80755, 0, 0.0915527, 0.0762939, 25.7816, 91097.1
11803, 0.00287109, 0.00871582, 0.0330176, 0.0129199, -0.11498, 0.0856234, 9.82223, -0.183105, -0.137329, -0.0152588, 25.786, 91097.1
11813, 0.00287109, 0.00748535, 0.0326074, 0.0120996, -0.105195, 0.0978554, 9.86627, -0.183105, -0.274658, -0.0762939, 25.7994, 91097.2
11823, 0.00164062, 0.00625488, 0.0321973, 0.0125098, 0.0366958, 0.0782843, 9.75863, -0.106812, 0.0152588, -0.0305176, 25.7848, 91097.2
11833, -0.00123047, 0.00625488, 0.0330176, 0.0125098, -0.122319, 0.0684988, 9.86627, -0.152588, -0.0762939, -0.0152588, 25.7951, 91097
11843, 0, 0.00748535, 0.0321973, 0.0133301, -0.0391421, 0.0587132, 9.75863, -0.137329, 0.183105, -0.0305176, 25.7873, 91096.9
11853, 0, 0.00502441, 0.0321973, 0.0125098, -0.0758379, 0.0342494, 9.85893, -0.106812, -0.274658, -0.0152588, 25.7816, 91096.6
11863, 0, 0.00830566, 0.0330176, 0.0133301, -0.00733915, -0.00978554, 9.70236, -0.0762939, 0.38147, 0, 25.7955, 91097.7
11903, 0.00123047, 0.00830566, 0.0321973, 0.0145605, 0.0905162, 0.163908, 9.69257, -0.106812, -0.289917, -0.0457764, 25.7883, 91098
11913, 0.00205078, 0.0070752, 0.034248, 0.0120996, -0.166354, 0.0415885, 9.93477, -0.137329, 0.38147, 0, 25.7925, 91097.8
11923, 0.00205078, 0.00666504, 0.0326074, 0.0137402, 0.0440349, 0.0807307, 9.74639, -0.0152588, -0.595093, -0.0152588, 25.7867, 91097.3
11933, 0.00164062, 0.00748535, 0.0351709, 0.0133301, -0.0171247, 0.100302, 9.83446, -0.0610352, 0.564575, 0, 25.7804, 91096.9
11943, 0, 0.00748535, 0.0326074, 0.0133301, -0.122319, 0.0611596, 9.85893, -0.12207, -0.228882, 0.0152588, 25.7921, 91097.5
11953, 0.00164062, 0.00543457, 0.0317871, 0.0129199, -0.0733915, 0.0978554, 9.82223, -0.137329, 0.12207, 0.0152588, 25.7928, 91097.8
11963, 0.00205078, 0.00666504, 0.0317871, 0.0141504, -0.122319, 0.0269102, 9.83446, -0.0762939, -0.0762939, -0.0305176, 25.7954, 91098.1
11973, 0.00205078, 0.00666504, 0.0317871, 0.0116895, -0.0587132, 0.0366958, 9.78554, -0.0762939, -0.137329, 0.0152588, 25.7887, 91098
11993, 0.00205078, 0.00789551, 0.0321973, 0.0137402, -0.0782843, 0.112534, 9.84425, -0.0305176, 0.0457764, 0.0305176, 25.7917, 91098.3
12003, 0.00246094, 0.0070752, 0.0292236, 0.0120996, -0.0244638, 0.139444, 9.79532, -0.137329, -0.0152588, -0.0152588, 25.785, 91098
12013, 0.00205078, 0.00748535, 0.0292236, 0.0100488, -0.122319, 0.0758379, 9.84425, -0.183105, 0.12207, 0.0457764, 25.7878, 91098
12023, 0.00205078, 0.00748535, 0.0334277, 0.0120996, -0.105195, 0.0513741, 9.80021, -0.152588, -0.152588, -0.0152588, 25.7939, 91097.3
12033, 0.00205078, 0.00451172, 0.0305566, 0.0125098, -0.0807307, 0.0171247, 9.79777, -0.152588, 0.0305176, 0, 25.7797, 91096.9
12043, 0.00369141, 0.00451172, 0.0321973, 0.0125098, -0.0807307, 0.00244638, 9.79288, -0.12207, -0.0762939, 0.0457764, 25.7821, 91097.5
12053, 0.000820312, 0.00666504, 0.0338379, 0.0145605, -0.0220175, 0.0464813, 9.78554, 0.0610352, 0.0152588, 0.0457764, 25.7868, 91097
12073, -0.000820312, 0.00871582, 0.0351709, 0.0112793, -0.0856234, 0.110087, 9.81245, 0.0152588, -0.0305176, 0.0762939, 25.7942, 91097.4
12083, -0.000820312, 0.00953613, 0.034248, 0.0100488, -0.0978554, 0.129658, 9.82712, -0.0762939, -0.0457764, 0.12207, 25.795, 91097.1
12093, 0.000410156, 0.00953613, 0.0347607, 0.0100488, -0.110087, 0.107641, 9.87605, -0.0915527, -0.0305176, 0.0305176, 25.7948, 91097.7
12103, 0.000410156, 0.00625488, 0.0317871, 0.0133301, -0.0587132, 0.132105, 9.82468, -0.106812, -0.167847, -0.0152588, 25.8032, 91097.5
12113, 0.000410156, 0.00543457, 0.0317871, 0.0125098, -0.0660524, 0.0929626, 9.81979, -0.213623, 0.0915527, 0.0305176, 25.7971, 91097.1
12123, 0, 0.00871582, 0.0305566, 0.0125098, -0.0758379, 0.0807307, 9.83446, -0.152588, -0.0915527, 0.0762939, 25.7994, 91097.2
12133, 0, 0.00666504, 0.0317871, 0.0108691, -0.0366958, 0.0880698, 9.79777, -0.137329, -0.12207, -0.0305176, 25.7848, 91097.5
12143, 0.000410156, 0.00543457, 0.034248, 0.0108691, -0.0244638, 0.0220175, 9.76841, -0.152588, 0.0762939, 0.0610352, 25.7862, 91097.1
12163, 0.00246094, 0.00748535, 0.034248, 0.0145605, -0.0195711, 0.0440349, 9.76352, -0.106812, -0.0305176, 0, 25.7843, 91097.1
12173, 0, 0.0070752, 0.034248, 0.0154834, -0.14189, 0.0220175, 9.85404, -0.0915527, 0.274658, 0.0610352, 25.8086, 91097.2
12183, 0, 0.00912598, 0.0334277, 0.010459, -0.063606, 0.0978554, 9.80021, -0.0610352, -0.289917, 0, 25.7882, 91097.4
12193, 0.00164062, 0.00410156, 0.0317871, 0.0141504, -0.0464813, 0.0709451, 9.80511, -0.0305176, 0.335693, 0, 25.796, 91097.2
12203, 0.000820312, 0.00410156, 0.0347607, 0.0141504, -0.112534, 0.0856234, 9.86627, -0.12207, -0.305176, -0.0152588, 25.7959, 91097.5
12213, 0.00164062, 0.00666504, 0.0305566, 0.0116895, 0.00978554, 0.117426, 9.76597, -0.137329, 0.12207, -0.0152588, 25.7923, 91097.5
12223, 0.00287109, 0.00830566, 0.0305566, 0.0125098, -0.144337, 0.0733915, 9.88339, -0.152588, -0.0305176, 0.0152588, 25.7991, 91097.4
12243, 0.00164062, 0.00543457, 0.0330176, 0.0145605, -0.105195, 0.0807307, 9.87116, -0.0915527, 0.0610352, 0.0305176, 25.7874, 91097.7
12253, 0.00287109, 0.00543457, 0.0338379, 0.0145605, -0.0513741, 0.0660524, 9.78798, -0.0915527, -0.183105, 0.0457764, 25.7898, 91097.5
12263, 0.00369141, 0.0070752, 0.0330176, 0.0141504, -0.0929626, 0.0758379, 9.8467, -0.12207, -0.0152588, 0.0152588, 25.7946, 91098
12273, 0.00287109, 0.00666504, 0.0330176, 0.0137402, -0.0244638, 0.0733915, 9.81489, -0.167847, -0.0915527, -0.0152588, 25.7945, 91097.6
12283, 0, 0.00830566, 0.0309668, 0.0112793, -0.0415885, 0.102748, 9.82223, -0.167847, 0, 0.0610352, 25.7887, 91097.6
12293, 0, 0.00748535, 0.0330176, 0.0129199, -0.0513741, 0.0538205, 9.79777, -0.213623, -0.0610352, 0.0457764, 25.7864, 91098
12303, 0.00246094, 0.00748535, 0.0330176, 0.0129199, -0.0929626, 0.0391421, 9.83202, -0.183105, 0.137329, 0, 25.7931, 91097.4
12313, 0.00246094, 0.00584473, 0.0317871, 0.0108691, -0.0856234, 0.063606, 9.79288, -0.152588, -0.12207, 0.0610352, 25.7899, 91097.3
12333, 0.000820312, 0.00584473, 0.0317871, 0.0145605, -0.0587132, 0.0489277, 9.77575, -0.12207, -0.0762939, 0, 25.7969, 91098.1
12343, 0.000820312, 0.00748535, 0.0317871, 0.0141504, -0.0684988, 0.0684988, 9.81979, -0.0915527, 0.0915527, -0.0305176, 25.784, 91098.1
12353, 0.00328125, 0.0070752, 0.0347607, 0.0108691, -0.0538205, 0.0342494, 9.79777, -0.12207, -0.106812, 0.0152588, 25.7858, 91097.8
12363, 0.00123047, 0.0070752, 0.031377, 0.0108691, -0.0587132, 0.063606, 9.82223, -0.0762939, 0.0152588, 0, 25.7838, 91098.1
12373, 0.00164062, 0.00543457, 0.0321973, 0.0116895, -0.0464813, 0.0489277, 9.78554, -0.0762939, -0.106812, 0, 25.8018, 91097.5
12383, 0.00246094, 0.0070752, 0.0321973, 0.0137402, -0.0831771, 0.0733915, 9.83446, -0.0457764, 0.0305176, 0.0305176, 25.7882, 91097.5
12393, 0.00246094, 0.00871582, 0.0321973, 0.0145605, -0.0684988, 0.0733915, 9.81489, -0.0610352, -0.137329, 0.0762939, 25.802, 91097
12413, 0.00246094, 0.00543457, 0.0326074, 0.0137402, -0.095409, 0.0978554, 9.84914, -0.0457764, -0.167847, -0.0305176, 25.7905, 91097.5
12423, 0.00164062, 0.00748535, 0.0330176, 0.0125098, 0.0146783, 0.110087, 9.79777, -0.137329, 0, 0.0152588, 25.8, 91097.8
12433, 0.00246094, 0.00666504, 0.0330176, 0.0133301, -0.0733915, 0.0489277, 9.80021, -0.183105, 0.320435, -0.0762939, 25.7821, 91097.2
12443, 0.00246094, 0.00789551, 0.0338379, 0.0129199, -0.117426, 0.0709451, 9.85648, -0.12207, -0.12207, 0.0152588, 25.7918, 91098
12453, 0.000410156, 0.00584473, 0.0317871, 0.0129199, 0.00489277, 0.063606, 9.73661, -0.152588, 0.0457764, 0.0152588, 25.7889, 91097.4
12463, 0.000820312, 0.00584473, 0.034248, 0.0129199, -0.161461, 0.0489277, 9.88584, -0.152588, 0.0457764, 0.0305176, 25.7988, 91097.3
12473, 0.00164062, 0.00748535, 0.0334277, 0.010459, 0.0293566, 0.102748, 9.7415, -0.12207, -0.167847, 0.0152588, 25.7934, 91097.6
12483, 0.00287109, 0.00584473, 0.0334277, 0.0120996, -0.139444, 0.0220175, 9.86627, -0.152588, 0.167847, 0.0305176, 25.81, 91097.3
12503, 0.00205078, 0.00789551, 0.0338379, 0.0116895, -0.0929626, 0.063606, 9.83202, 0, 0.350952, 0.0152588, 25.7904, 91097.2
12513, 0.00164062, 0.00789551, 0.031377, 0.0116895, -0.0905162, 0.0758379, 9.81, -0.0457764, -0.183105, -0.0305176, 25.7914, 91097.3
12523, 0.000410156, 0.00666504, 0.0305566, 0.0125098, -0.0538205, 0.095409, 9.81245, -0.0762939, 0.0762939, -0.0457764, 25.7864, 91097.8
12533, 0.00164062, 0.00451172, 0.0305566, 0.0112793, -0.0880698, 0.117426, 9.82712, -0.0762939, -0.213623, -0.0152588, 25.7999, 91097.9
12543, 0.000820312, 0.00584473, 0.031377, 0.0108691, -0.0611596, 0.0929626, 9.81245, -0.137329, 0.0457764, -0.0610352, 25.792, 91097.9
12553, 0.000820312, 0.00830566, 0.0321973, 0.0125098, -0.0562668, 0.0807307, 9.80266, -0.183105, -0.0457764, -0.0305176, 25.8017, 91097.5
12563, 0, 0.00830566, 0.0317871, 0.0112793, -0.0856234, 0.0244638, 9.83446, -0.106812, 0.137329, -0.0610352, 25.7934, 91097.4
12583, 0.00246094, 0.00830566, 0.0305566, 0.0141504, -0.11498, 0.0758379, 9.83936, -0.0457764, 0.0915527, 0.0152588, 25.7827, 91097.6
12593, 0, 0.00789551, 0.0305566, 0.0167139, -0.0195711, 0.0709451, 9.78798, -0.152588, -0.167847, 0.106812, 25.7883, 91097.3
12603, 0, 0.00625488, 0.0338379, 0.0112793, -0.105195, 0.0342494, 9.83446, -0.0305176, 0.106812, 0.0305176, 25.8013, 91097.8
12613, 0.000410156, 0.0070752, 0.0326074, 0.0116895, -0.0391421, 0.0513741, 9.78554, -0.0305176, -0.167847, 0.0457764, 25.7908, 91097.3
12623, 0.00123047, 0.0070752, 0.0347607, 0.0116895, -0.0733915, 0.0611596, 9.80511, -0.0610352, 0.152588, 0.0457764, 25.7907, 91097.7
12633, 0, 0.00830566, 0.0326074, 0.0120996, -0.127212, 0.100302, 9.82957, -0.0915527, -0.0762939, -0.0305176, 25.7898, 91098
12643, 0.00164062, 0.00830566, 0.0326074, 0.0145605, -0.0684988, 0.110087, 9.80755, -0.0610352, 0.0457764, 0, 25.7974, 91097.4
12653, 0.00164062, 0.00666504, 0.031377, 0.0116895, -0.0880698, 0.0782843, 9.84914, -0.0762939, -0.183105, -0.0152588, 25.8028, 91098.2
12693, 0.00246094, 0.00502441, 0.0309668, 0.0145605, -0.0856234, 0.0807307, 9.83446, -0.106812, 0.0915527, -0.0457764, 25.7921, 91097.4
12703, 0.000410156, 0.00830566, 0.0334277, 0.0116895, -0.102748, 0.0856234, 9.8467, -0.183105, -0.0305176, 0.0610352, 25.7905, 91097.3
12713, 0.000410156, 0.00502441, 0.0330176, 0.0137402, -0.0831771, 0.0660524, 9.81489, -0.213623, 0.0457764, 0.0457764, 25.7789, 91097.4
12723, 0.00502441, 0.00502441, 0.0338379, 0.0137402, -0.0978554, 0.0440349, 9.82468, -0.0610352, -0.228882, -0.0305176, 25.7958, 91097.6
12733, 0.00123047, 0.00789551, 0.0317871, 0.0108691, -0.0391421, 0.0415885, 9.7733, -0.0610352, 0.137329, -0.0152588, 25.7929, 91098.1
12743, 0.00123047, 0.00369141, 0.0317871, 0.0145605, -0.105195, 0.0660524, 9.83936, -0.0457764, -0.0610352, -0.0457764, 25.7923, 91098
12753, 0.000820312, 0.00625488, 0.0330176, 0.0133301, -0.0513741, 0.100302, 9.80511, -0.106812, -0.0457764, -0.0152588, 25.7931, 91097.9
12773, 0.000410156, 0.00830566, 0.0301465, 0.0125098, -0.0611596, 0.107641, 9.81489, -0.106812, -0.0610352, -0.0305176, 25.7836, 91098
12783, 0.000410156, 0.00830566, 0.0326074, 0.0125098, -0.031803, 0.0733915, 9.81979, -0.167847, 0.0610352, 0.0457764, 25.7972, 91097.9
12793, 0, 0.00584473, 0.0330176, 0.0120996, -0.0880698, 0.0293566, 9.82468, -0.167847, -0.106812, 0.0305176, 25.7873, 91098
12803, 0.00123047, 0.00789551, 0.0330176, 0.0145605, -0.0733915, 0.0171247, 9.79777, -0.0762939, 0.0762939, 0.0152588, 25.7973, 91097.8
12813, 0.00123047, 0.00666504, 0.034248, 0.0120996, -0.0684988, 0.0293566, 9.81245, -0.0610352, -0.0915527, 0.0457764, 25.7985, 91098
12823, 0.000410156, 0.00584473, 0.0317871, 0.0125098, -0.0538205, 0.0782843, 9.80021, -0.0152588, 0.0152588, 0.0152588, 25.7903, 91097.4
12833, 0.00164062, 0.00584473, 0.0330176, 0.0125098, -0.0709451, 0.105195, 9.82468, 0.0152588, -0.0305176, 0.0457764, 25.8074, 91097.6
12843, -0.000410156, 0.00584473, 0.0326074, 0.0116895, -0.0807307, 0.0831771, 9.81734, -0.0305176, -0.106812, 0.0457764, 25.7912, 91097.6
12863, 0.000820312, 0.00502441, 0.0330176, 0.0129199, -0.0342494, 0.0880698, 9.80021, -0.0457764, -0.106812, 0.0457764, 25.8008, 91098
12873, 0.000820312, 0.00748535, 0.0355811, 0.0133301, -0.0733915, 0.0807307, 9.85404, -0.0915527, 0.0152588, -0.0305176, 25.7919, 91097.5
12883, 0.00410156, 0.00748535, 0.0305566, 0.0133301, -0.0464813, 0.0758379, 9.76841, -0.0762939, -0.0762939, 0.0457764, 25.7896, 91097.9
12893, 0.00246094, 0.00953613, 0.031377, 0.0116895, -0.11498, 0.0464813, 9.8418, -0.0152588, 0.12207, 0.0305176, 25.7862, 91097.6
12903, 0.000820312, 0.00584473, 0.031377, 0.0137402, -0.0905162, 0.0415885, 9.79532, -0.0305176, -0.0915527, 0.0305176, 25.8018, 91097.5
12913, 0.00164062, 0.00666504, 0.0330176, 0.0116895, -0.11498, 0.031803, 9.84425, -0.0457764, -0.0915527, -0.0305176, 25.8019, 91098
12923, 0.00164062, 0.00748535, 0.0330176, 0.0133301, -0.00489277, 0.0611596, 9.76597, 0.0152588, -0.228882, 0.0152588, 25.807, 91098.2
12933, 0.00164062, 0.00748535, 0.0347607, 0.0133301, -0.0464813, 0.0978554, 9.82712, -0.0457764, 0.0457764, -0.0457764, 25.7928, 91098
12953, 0.00123047, 0.0070752, 0.0330176, 0.0129199, -0.0709451, 0.117426, 9.85893, -0.12207, 0.137329, 0, 25.7948, 91097.7
12963, 0.00246094, 0.00625488, 0.031377, 0.0125098, -0.0807307, 0.102748, 9.83936, -0.0915527, -0.106812, -0.0457764, 25.7951, 91098.1
12973, 0.00246094, 0.010459, 0.0309668, 0.0120996, -0.107641, 0.0464813, 9.81979, -0.106812, 0.0457764, -0.0305176, 25.7994, 91097.9
12983, 0.00164062, 0.010459, 0.0347607, 0.0145605, -0.0513741, 0.031803, 9.82957, -0.106812, -0.335693, 0.0305176, 25.8015, 91098.1
12993, 0.00205078, 0.00789551, 0.0330176, 0.0145605, 0.0195711, 0.031803, 9.72438, -0.152588, 0.0610352, -0.0610352, 25.7933, 91098.3
13003, 0.00410156, 0.00666504, 0.0326074, 0.0125098, -0.139444, 0.0342494, 9.86871, -0.0762939, 0.137329, -0.0915527, 25.8014, 91098.4
13013, 0.00123047, 0.00625488, 0.0326074, 0.0125098, -0.0513741, 0.122319, 9.78554, -0.0762939, -0.213623, -0.0152588, 25.8004, 91097.1
13033, -0.000410156, 0.0070752, 0.0338379, 0.0112793, -0.0709451, 0.0880698, 9.82957, -0.0762939, -0.473022, 0, 25.8047, 91097.6
13043, 0.00246094, 0.0070752, 0.0321973, 0.0112793, -0.0146783, 0.095409, 9.78064, -0.12207, 0.228882, 0.0305176, 25.8017, 91097.1
13053, 0.000820312, 0.00789551, 0.0288135, 0.0141504, -0.112534, 0.0562668, 9.85404, -0.137329, -0.183105, -0.0152588, 25.8007, 91097.3
13063, 0.00205078, 0.00789551, 0.0288135, 0.0133301, 0, 0.0929626, 9.77575, -0.106812, 0.0305176, 0.0305176, 25.8066, 91097.9
13073, 0, 0.00625488, 0.0317871, 0.0120996, -0.100302, 0.0513741, 9.84914, -0.106812, 0.0762939, 0.0305176, 25.8031, 91098
13083, 0, 0.00625488, 0.0334277, 0.0137402, -0.0807307, 0.0464813, 9.80511, -0.152588, -0.0915527, 0.0457764, 25.8165, 91097.4
13093, 0.00287109, 0.00625488, 0.031377, 0.0137402, -0.112534, 0.063606, 9.82712, -0.106812, 0.12207, 0, 25.8014, 91097.7
13103, 0.00246094, 0.00912598, 0.0305566, 0.0137402, -0.0880698, 0.0611596, 9.80755, -0.0457764, -0.0762939, -0.0457764, 25.8044, 91097.6
13123, 0.00205078, 0.00666504, 0.034248, 0.0125098, -0.0391421, 0.0905162, 9.81734, -0.152588, -0.0915527, 0.0762939, 25.7921, 91098.1
13133, 0.00205078, 0.00625488, 0.0334277, 0.0133301, -0.0562668, 0.119873, 9.84425, -0.106812, 0.0305176, -0.0152588, 25.8147, 91097.8
13143, 0.00410156, 0.00625488, 0.0326074, 0.0133301, -0.0562668, 0.0929626, 9.82712, -0.167847, -0.106812, -0.0305176, 25.8074, 91098.7
13153, 0.00205078, 0.00451172, 0.0309668, 0.0137402, -0.102748, 0.0733915, 9.82957, -0.0762939, 0.152588, -0.0457764, 25.8, 91098.2
13163, -0.000410156, 0.0070752, 0.0309668, 0.0120996, -0.107641, 0.0684988, 9.81734, -0.213623, -0.213623, 0, 25.8039, 91098.4
13173, 0.00205078, 0.00912598, 0.0355811, 0.0133301, -0.0587132, 0.0733915, 9.82468, -0.137329, 0.0152588, 0.0305176, 25.8011, 91098
13183, 0.00205078, 0.00369141, 0.031377, 0.0150732, -0.00489277, 0.0366958, 9.79043, -0.12207, -0.0915527, 0.0457764, 25.7923, 91097.7
13203, -0.000410156, 0.00625488, 0.0359912, 0.0141504, 0.00489277, 0.0195711, 9.72682, -0.106812, 0.259399, 0.0152588, 25.803, 91098
13213, 0.00123047, 0.00666504, 0.0338379, 0.0145605, -0.156569, 0.0195711, 9.85648, -0.12207, -0.228882, 0.0610352, 25.7991, 91097.9
13223, 0.00205078, 0.00543457, 0.0338379, 0.0112793, -0.0611596, 0.0880698, 9.79288, 0.0305176, 0.244141, -0.0152588, 25.8046, 91098.1
13233, 0.00205078, 0.00666504, 0.0334277, 0.0120996, -0.112534, 0.112534, 9.86137, -0.0457764, -0.274658, 0, 25.8077, 91098.3
13243, 0.00205078, 0.0070752, 0.0334277, 0.0137402, -0.0660524, 0.185925, 9.85648, -0.12207, 0.0305176, 0.0152588, 25.7951, 91098.4
13253, 0.000410156, 0.0070752, 0.034248, 0.0137402, 0.00244638, 0.183479, 9.79288, -0.183105, -0.0152588, 0.0457764, 25.8, 91098.1
13263, 0.00123047, 0.00748535, 0.0321973, 0.0141504, -0.0856234, 0.0122319, 9.81489, -0.213623, 0.0610352, -0.0762939, 25.7948, 91098.2
13273, 0.00369141, 0.00748535, 0.0321973, 0.0125098, -0.00489277, -0.0293566, 9.75863, -0.167847, -0.0152588, -0.0152588, 25.8023, 91098
13293, 0.00205078, 0.0070752, 0.0334277, 0.0137402, -0.119873, 0.110087, 9.84914, -0.167847, -0.228882, -0.0305176, 25.8022, 91097.3
13303, 0.00328125, 0.0070752, 0.0330176, 0.0137402, -0.0782843, 0.146783, 9.83446, -0.167847, 0.0305176, 0.0152588, 25.8023, 91098.2
13313, 0.00164062, 0.0070752, 0.0359912, 0.0125098, -0.0611596, 0.119873, 9.82468, -0.198364, -0.198364, 0.0457764, 25.8076, 91098
13323, -0.000410156, 0.00789551, 0.0359912, 0.0137402, -0.0464813, 0.107641, 9.81245, -0.152588, 0.12207, -0.0457764, 25.8068, 91097.5
13333, 0.00287109, 0.00584473, 0.0330176, 0.0125098, -0.0880698, 0.107641, 9.82223, -0.213623, -0.228882, 0, 25.8059, 91098.5
13343, 0.00287109, 0.00502441, 0.034248, 0.0137402, -0.105195, 0.129658, 9.87361, -0.259399, -0.335693, 0, 25.812, 91098.3
13353, 0.00123047, 0.00502441, 0.0326074, 0.0137402, 0.0978554, 0.0391421, 9.70725, -0.244141, 0.549316, -0.0152588, 25.8145, 91098.5
13373, 0.00205078, 0.00584473, 0.031377, 0.0129199, 0.0146783, -0.107641, 9.74395, 0.0305176, 0.961304, 0.0457764, 25.7966, 91098
13383, 0.00328125, 0.00912598, 0.0338379, 0.0145605, -0.0244638, -0.0929626, 9.68034, 0.228882, -0.396728, -0.0305176, 25.81, 91097.8
13393, 0.00328125, 0.00625488, 0.0347607, 0.0125098, -0.237299, 0.0220175, 9.95189, 0.198364, 0.183105, 0.0152588, 25.8111, 91099
13403, 0.00164062, 0.00625488, 0.0347607, 0.0125098, 0.0122319, 0.220175, 9.71459, 0.12207, 0.0305176, 0.0152588, 25.8046, 91098
13413, -0.00123047, 0.00666504, 0.0317871, 0.0137402, -0.266656, 0.171247, 10.0179, 0.0152588, -0.610352, -0.0305176, 25.8115, 91098.6
13423, 0.000410156, 0.00666504, 0.0338379, 0.0125098, 0.0733915, 0.139444, 9.72682, -0.0762939, 0.457764, 0.0152588, 25.8134, 91099
13433, 0.00123047, 0.0070752, 0.0338379, 0.0154834, -0.0464813, 0.183479, 9.89073, -0.213623, -0.38147, 0.0152588, 25.809, 91097.8
13443, 0.00123047, 0.00584473, 0.034248, 0.0141504, 0.0146783, 0.0978554, 9.76841, -0.259399, 0.518799, 0, 25.8129, 91098.3
13483, 0.00123047, 0.00451172, 0.0330176, 0.0125098, -0.0220175, 0.031803, 9.7733, -0.0152588, 0.228882, 0.0457764, 25.8035, 91098.3
13493, 0.00246094, 0.00666504, 0.0321973, 0.0141504, -0.119873, 0.0342494, 9.82712, 0, -0.228882, -0.0457764, 25.8172, 91098
13503, 0.00246094, 0.00830566, 0.0334277, 0.0129199, -0.112534, 0.095409, 9.86627, -0.137329, -0.305176, -0.0305176, 25.8035, 91097.9
13513, -0.00205078, 0.00830566, 0.034248, 0.0129199, 0.063606, 0.173693, 9.79777, -0.137329, 0.335693, -0.0152588, 25.8018, 91098.3
13523, 0.00369141, 0.00748535, 0.0330176, 0.0125098, -0.0146783, 0.0611596, 9.78798, -0.106812, -0.274658, 0.0152588, 25.8187, 91097.3
13533, 0.000410156, 0.00584473, 0.0330176, 0.0129199, -0.0611596, 0.0978554, 9.88339, -0.12207, 0.137329, 0.0762939, 25.7991, 91097.8
13543, -0.00123047, 0.0100488, 0.0321973, 0.0150732, 0.0146783, 0.0366958, 9.95678, -0.0457764, 0.183105, 0.0457764, 25.8098, 91097.8
13563, 0, 0.00789551, 0.0317871, 0.0112793, 0.0244638, 0.0684988, 9.93232, -0.0762939, 0.671387, 0.0152588, 25.8116, 91098.3
13573, 0.00205078, 0.00584473, 0.0330176, 0.0129199, -0.22996, 0.0391421, 9.79777, 0.0610352, -0.961304, -0.0152588, 25.8069, 91097.7
13583, 0.000410156, 0.00748535, 0.0330176, 0.0120996, -0.00978554, 0.136998, 9.81979, -0.106812, 0.564575, -0.0152588, 25.8032, 91097.7
13593, 0.00246094, 0.00912598, 0.034248, 0.0129199, -0.00733915, 0.159015, 9.86137, -0.106812, -0.442505, 0.0152588, 25.7951, 91097.4
13603, 0.00246094, 0.00666504, 0.0330176, 0.0120996, -0.0880698, 0.107641, 9.78554, -0.228882, 0.289917, 0.0305176, 25.8165, 91097.7
13613, 0.00246094, 0.00666504, 0.0351709, 0.0120996, 0.00978554, 0.119873, 9.8418, -0.183105, -0.137329, 0.0610352, 25.8205, 91097.8
13623, 0.00246094, 0.00451172, 0.0317871, 0.0125098, -0.127212, 0.0611596, 9.78554, -0.152588, -0.0152588, -0.0152588, 25.8225, 91097.8
13633, -0.000410156, 0.00789551, 0.0321973, 0.0137402, -0.0856234, 0.031803, 9.83936, -0.137329, -0.274658, 0, 25.8133, 91097.7
13653, 0.00164062, 0.00625488, 0.031377, 0.0120996, -0.00978554, 0.0195711, 9.87361, -0.0610352, -0.152588, 0.0152588, 25.8018, 91097.5
13663, 0.00164062, 0.00625488, 0.0355811, 0.0108691, -0.0856234, 0.063606, 9.72927, -0.152588, 0.137329, -0.0305176, 25.8051, 91097.9
13673, 0.00205078, 0.00789551, 0.0338379, 0.0108691, 0.0269102, 0.0611596, 9.91764, -0.0915527, 0, 0.0610352, 25.8101, 91097.7
13683, 0.00205078, 0.00830566, 0.0338379, 0.0125098, -0.17614, 0.0489277, 9.74639, -0.0915527, -0.0610352, 0, 25.8031, 91098
13693, 0.00246094, 0.00625488, 0.0338379, 0.0129199, -0.0146783, 0.105195, 9.89562, -0.106812, 0.12207, 0, 25.7997, 91098.1
13703, 0.00164062, 0.00584473, 0.0334277, 0.0116895, -0.149229, 0.0684988, 9.7733, -0.0457764, -0.228882, 0.0152588, 25.8147, 91098.1
13713, 0.00164062, 0.00789551, 0.0326074, 0.0125098, -0.0513741, 0.0880698, 9.82223, -0.0610352, 0.0610352, 0.0305176, 25.8093, 91097.8
13733, 0.000410156, 0.00789551, 0.0330176, 0.0100488, -0.0489277, 0.0538205, 9.81734, -0.0762939, 0.289917, 0, 25.8077, 91097.8
13743, -0.000410156, 0.00789551, 0.0330176, 0.0145605, -0.0733915, 0.0538205, 9.81489, -0.152588, -0.198364, 0.0152588, 25.8041, 91098
13753, 0.00164062, 0.00789551, 0.0317871, 0.0120996, -0.0929626, 0.0807307, 9.8418, -0.0915527, 0.0762939, 0, 25.8107, 91097.8
13763, 0.00164062, 0.00666504, 0.0309668, 0.0108691, -0.0929626, 0.0831771, 9.80021, -0.12207, -0.213623, -0.0305176, 25.8144, 91097.1
13773, 0.000820312, 0.00666504, 0.0338379, 0.0108691, -0.0587132, 0.0807307, 9.83202, -0.12207, 0.152588, -0.0457764, 25.8098, 91097.1
13783, 0.00246094, 0.00584473, 0.0321973, 0.0120996, -0.0831771, 0.112534, 9.82223, -0.167847, -0.0457764, -0.0305176, 25.8011, 91098.1
13793, 0.00625488, 0.00410156, 0.0321973, 0.0129199, -0.0440349, 0.0831771, 9.82712, -0.167847, -0.0152588, 0.0305176, 25.8053, 91097.9
13803, 0.00123047, 0.0070752, 0.0351709, 0.0150732, -0.0709451, 0.0366958, 9.81489, -0.152588, -0.167847, 0.0457764, 25.8142, 91097.9
13823, 0.00246094, 0.00666504, 0.0317871, 0.0137402, -0.0513741, 0.0171247, 9.76597, -0.0915527, -0.106812, -0.0152588, 25.8116, 91098.1
13833, -0.000410156, 0.00912598, 0.0334277, 0.0125098, -0.0342494, 0.0538205, 9.79288, 0.0305176, 0.167847, -0.0152588, 25.8111, 91098.2
13843, 0.000820312, 0.0070752, 0.0334277, 0.0112793, -0.0269102, 0.0831771, 9.85159, 0, 0.0305176, 0, 25.8113, 91097.5
13853, 0, 0.00543457, 0.0334277, 0.0129199, -0.105195, 0.11498, 9.81245, -0.0457764, 0, 0.0457764, 25.8, 91098
13863, 0.00123047, 0.00830566, 0.0351709, 0.0137402, -0.0782843, 0.0856234, 9.87361, -0.0915527, -0.0457764, -0.0305176, 25.8146, 91097.5
13873, 0.00123047, 0.00830566, 0.0326074, 0.0116895, -0.146783, 0.110087, 9.79777, -0.0610352, -0.244141, 0.0305176, 25.7979, 91098.4
13883, -0.000410156, 0.00748535, 0.034248, 0.0116895, -0.0146783, 0.0782843, 9.82223, -0.12207, 0.0610352, -0.0152588, 25.8095, 91098.1
13903, 0.00246094, 0.00748535, 0.0326074, 0.0120996, -0.0611596, 0.0782843, 9.81, -0.12207, 0.0915527, -0.0152588, 25.8116, 91098.3
13913, 0.000820312, 0.0070752, 0.0347607, 0.0125098, -0.063606, 0.063606, 9.83936, -0.0762939, -0.0152588, 0.0457764, 25.8188, 91098.2
13923, 0.000820312, 0.00830566, 0.0330176, 0.0133301, -0.117426, 0.0562668, 9.78554, -0.0915527, -0.0762939, 0, 25.8092, 91097.4
13933, 0.00287109, 0.00830566, 0.0334277, 0.0133301, -0.0709451, 0.0562668, 9.81734, -0.0610352, -0.137329, -0.0457764, 25.8067, 91096.9
13943, 0.00164062, 0.00666504, 0.034248, 0.017124, -0.0733915, 0.0587132, 9.79777, -0.0305176, 0.0152588, -0.0305176, 25.8075, 91097.6
13953, 0.00410156, 0.00369141, 0.034248, 0.0116895, -0.00733915, 0.063606, 9.79288, -0.0152588, -0.106812, -0.0305176, 25.8121, 91098.1
13963, 0.000820312, 0.00953613, 0.0326074, 0.0120996, -0.0513741, 0.0513741, 9.7733, -0.0152588, 0.0915527, 0.0305176, 25.8063, 91097.3
13973, 0.000820312, 0.00502441, 0.0338379, 0.0137402, -0.100302, 0.0684988, 9.82957, -0.0152588, 0.137329, 0.0915527, 25.8068, 91097.6
