timestamp, current1, current2, current3, current4, accel x, accel y, accel z, degrees x, degrees y, degrees z, baro temp, baro pressure
3613, 0.000410156, 0.00625488, 0.0233789, 0.0070752, -0.00733915, 0.171247, 10.1941, -1.57166, 2.57874, 0.274658, 26.2417, 91097
3623, 0.00543457, 0.00953613, 0.0263525, 0.00748535, 0.00489277, -0.0464813, 9.9103, -0.549316, 2.31934, 0.12207, 26.2521, 91096.9
3633, 0.00543457, 0.00871582, 0.0229687, 0.00748535, -0.183479, 0.161461, 10.0889, 0.488281, -3.02124, -0.213623, 26.2521, 91097
3643, 0.00123047, 0.00830566, 0.0229687, 0.00748535, 0.17614, 0.168801, 9.66811, 0.640869, -0.823975, -0.442505, 26.2516, 91097.2
3653, 0.000820312, 0.00830566, 0.0251221, 0.00871582, -0.0513741, 0.0978554, 9.85404, -0.152588, -3.66211, -0.106812, 26.2505, 91096.8
3663, 0.000410156, 0.00789551, 0.0267627, 0.00830566, 0.702112, 0.122319, 8.97089, -0.946045, 0.839233, 0.0762939, 26.2491, 91097.3
3673, 0.000820312, 0.00625488, 0.0259424, 0.010459, -0.110087, 0.17614, 10.0253, -1.58691, 9.58252, -0.732422, 26.2421, 91096.8
3683, 0.000820312, 0.00369141, 0.0251221, 0.010459, -0.0587132, 0.0440349, 9.92743, -1.58691, 2.21252, -0.396728, 26.2505, 91096.8
3703, 0.00205078, 0.00625488, 0.0251221, 0.00451172, 0.0366958, 0.117426, 9.74395, 0.137329, 0.228882, 0.244141, 26.2475, 91097.5
3713, 0.00164062, 0.00748535, 0.0263525, 0.00830566, -0.467259, -0.00489277, 10.128, 0.396728, 0.152588, -0.411987, 26.2372, 91097
3723, 0.000410156, 0.00830566, 0.0251221, 0.0129199, 0.222621, 0.0513741, 9.3721, 0.457764, -1.64795, -0.427246, 26.2428, 91097.2
3733, 0.000410156, 0.00871582, 0.0259424, 0.0129199, -0.188372, 0.0807307, 9.90541, 0.427246, 2.92969, -0.595093, 26.2455, 91096.7
3743, 0.00246094, 0.00871582, 0.0229687, 0.00871582, -0.146783, 0.102748, 9.7415, 0.274658, 2.36511, -0.778198, 26.2532, 91097.3
3753, 0.00205078, 0.00871582, 0.0229687, 0.00543457, 0.173693, 0.119873, 9.58249, -0.335693, 3.20435, -0.213623, 26.2462, 91097
3763, 0.00246094, 0.00789551, 0.0263525, 0.0108691, -0.134551, 0.154122, 9.8785, -0.656128, 4.82178, -0.38147, 26.2499, 91097.9
3783, 0.000820312, 0.00912598, 0.0284033, 0.00912598, -0.366958, 0.063606, 10.1647, 0.305176, 0.305176, -0.0762939, 26.2406, 91097
3793, 0.000410156, 0.00830566, 0.0284033, 0.00912598, -0.239746, 0.0464813, 9.95189, 0.762939, -3.69263, 0.167847, 26.2578, 91097.5
3803, -0.000410156, 0.00830566, 0.0284033, 0.00748535, -0.0587132, 0.14189, 9.80755, 0.991821, -5.18799, 0.427246, 26.2454, 91096.9
3813, 0.00123047, 0.00666504, 0.0263525, 0.00912598, 0.0856234, 0.149229, 9.6412, 0.473022, -3.2196, 0.518799, 26.2495, 91097.8
3823, 0.00369141, 0.00666504, 0.0229687, 0.00871582, 0.156569, -0.0684988, 9.5409, 0.0915527, 1.00708, 0.137329, 26.2481, 91097.2
3833, 0.00287109, 0.00912598, 0.0241992, 0.00748535, 0.472152, 0.0905162, 9.5091, 0.228882, -11.2457, 0.701904, 26.2504, 91097.7
3843, 0.00287109, 0.00871582, 0.0241992, 0.00748535, 0.154122, 0.234853, 9.69502, -0.442505, 1.66321, 0.0762939, 26.2472, 91097.3
3853, 0.00164062, 0.0070752, 0.0241992, 0.00830566, 0.259317, 0.00978554, 9.56047, -0.732422, 1.95312, -0.106812, 26.2477, 91097.5
3873, 0.000820312, 0.0070752, 0.0241992, 0.0108691, -0.621382, 0.266656, 10.336, 0.961304, -2.19727, 0.213623, 26.2562, 91096.8
3883, 0.000410156, 0.00912598, 0.0247119, 0.00666504, 0.171247, 0.0195711, 9.55313, 0.488281, -3.70789, 0.38147, 26.2626, 91097.1
3893, 0.000410156, 0.0070752, 0.0247119, 0.00666504, 0.149229, 0.107641, 9.65588, 0.0915527, 0.396728, -0.442505, 26.2534, 91097.5
3903, 0.00205078, 0.00666504, 0.0267627, 0.00871582, 0.0195711, 0.136998, 9.73416, -0.198364, 0.778198, -0.656128, 26.2697, 91097.1
3913, 0.00502441, 0.00666504, 0.0267627, 0.00830566, 0.190818, 0.100302, 9.62897, -0.396728, 3.11279, -0.900268, 26.2523, 91096.8
3923, 0.00246094, 0.00748535, 0.0247119, 0.0100488, 0.149229, 0.154122, 9.69747, -0.595093, 4.22668, -1.08337, 26.2456, 91096.6
3933, 0.000820312, 0.00451172, 0.0255322, 0.0100488, 0.110087, -0.0391421, 9.97146, -1.80054, -6.94275, 0.0152588, 26.2456, 91097.3
3953, 0.00246094, 0.0070752, 0.0241992, 0.0116895, 1.14002, -0.105195, 8.69445, -0.366211, -6.45447, 1.25122, 26.2645, 91097
3963, 0.00164062, 0.0070752, 0.0241992, 0.00748535, 0.134551, 0.0195711, 9.57025, -0.579834, 4.98962, 0.366211, 26.2616, 91097.2
3973, 0.000410156, 0.00451172, 0.0251221, 0.00830566, -0.362065, 0.063606, 10.0718, -0.869751, 5.12695, 0.12207, 26.2545, 91096.7
3983, 0.000820312, 0.0070752, 0.0284033, 0.00871582, -0.452581, 0.237299, 10.2797, 0.228882, 1.17493, -0.762939, 26.2488, 91095.7
3993, 0.000820312, 0.00912598, 0.0259424, 0.00830566, -0.0929626, 0.112534, 9.87605, 0.473022, -3.46374, -0.152588, 26.2436, 91096.4
4003, 0.000410156, 0.00789551, 0.0255322, 0.00830566, -0.296012, 0.261763, 10.1085, 0.671387, -4.83704, -0.488281, 26.2496, 91097.2
4013, 0.00287109, 0.00789551, 0.0255322, 0.00871582, 0.557776, 0.31803, 9.01248, 0.0762939, -1.28174, 0.488281, 26.2457, 91097
4023, 0.00164062, 0.00666504, 0.0225586, 0.0100488, 0.0195711, 0.207943, 9.71214, -0.900268, 1.75476, 1.19019, 26.239, 91096.6
4043, 0, 0.00830566, 0.0251221, 0.00953613, 0.0391421, -0.0611596, 9.90052, -1.297, 4.50134, 0.0610352, 26.245, 91097.4
4053, 0, 0.00953613, 0.0237891, 0.00953613, -0.0709451, 0.0244638, 9.89073, -0.564575, 3.58582, -0.228882, 26.2531, 91096.7
4063, 0.00246094, 0.00953613, 0.0237891, 0.00830566, -0.217728, 0.0342494, 9.99837, -0.137329, 2.60925, -0.259399, 26.2481, 91096.6
4073, 0.00123047, 0.00625488, 0.0279932, 0.00912598, -0.00489277, 0.0122319, 9.7782, 0.259399, -1.60217, -0.427246, 26.2523, 91097
4083, 0.000820312, 0.00748535, 0.0251221, 0.00953613, 0.227514, 0.134551, 9.64609, 0.198364, -0.213623, -0.396728, 26.2442, 91097.1
4093, 0.000820312, 0.00871582, 0.0237891, 0.00953613, 0.227514, 0.151676, 9.73906, 0.167847, 2.94495, -0.640869, 26.2432, 91097.2
4103, 0.000820312, 0.00625488, 0.0247119, 0.00953613, -0.220175, 0.0856234, 9.96412, 0.50354, 0.457764, -0.793457, 26.2487, 91096.9
4113, 0.00205078, 0.0100488, 0.0247119, 0.0100488, 0.288673, 0.178586, 9.57759, 0.213623, 1.35803, 0.0152588, 26.2501, 91096.7
4153, 0.000820312, 0.00748535, 0.0247119, 0.0108691, 0.0929626, -0.0269102, 9.46506, 0.183105, -6.36291, 0.320435, 26.2482, 91097
4163, -0.00123047, 0.00625488, 0.0241992, 0.00912598, -0.242192, 0.0978554, 10.0644, 0.778198, -3.98254, 0.320435, 26.245, 91096
4173, 0.00205078, 0.00625488, 0.0241992, 0.0116895, -0.112534, 0.127212, 9.86137, 1.11389, -4.98962, 0.457764, 26.2459, 91097.3
4183, 0.00123047, 0.0070752, 0.027583, 0.00953613, 0.168801, 0.112534, 9.61918, 0.839233, -4.5929, 0.457764, 26.2497, 91097
4193, 0.00164062, 0.00789551, 0.0247119, 0.00789551, 0.0562668, 0.0929626, 9.73661, 0.579834, -2.89917, 0.839233, 26.2506, 91097
4203, 0.00164062, 0.00789551, 0.0247119, 0.010459, -0.11498, 0.0171247, 9.8785, 0.488281, -2.31934, 1.02234, 26.2477, 91097.1
4213, 0.00164062, 0.00625488, 0.0267627, 0.010459, 0.220175, 0.100302, 9.83202, 0.671387, -9.04846, -0.50354, 26.2487, 91097.1
4233, 0.00205078, 0.00830566, 0.0233789, 0.00871582, -0.0489277, 0.183479, 9.71459, 0.213623, 0.762939, 0, 26.2609, 91096.8
4243, 0.00369141, 0.00543457, 0.0217383, 0.0100488, 0.37919, 0.0856234, 9.63141, -1.37329, 5.00488, -0.366211, 26.2473, 91097.2
4253, 0.00164062, 0.0100488, 0.0263525, 0.0100488, -0.031803, 0.0366958, 9.80021, -0.823975, 3.61633, -0.38147, 26.2573, 91097
4263, 0.00164062, 0.00830566, 0.0255322, 0.0100488, -0.499062, 0.0684988, 10.2895, -0.152588, 2.94495, -0.518799, 26.2466, 91096.9
4273, 0.00287109, 0.00830566, 0.0255322, 0.010459, 0.293566, 0.173693, 9.65343, -0.0152588, 1.9989, -0.427246, 26.2496, 91096.8
4283, 0.00246094, 0.00625488, 0.0241992, 0.010459, -0.303352, 0.163908, 10.1182, -0.106812, 0.50354, 0.213623, 26.2496, 91096.7
4293, 0.000410156, 0.00789551, 0.0247119, 0.00912598, -0.129658, 0.0415885, 9.88584, -0.198364, -3.9978, 0.564575, 26.2604, 91097
4303, 0.00123047, 0.00625488, 0.0263525, 0.0116895, 0.178586, 0.0269102, 9.63141, 0.0915527, -5.58472, 0.259399, 26.2575, 91096.8
4323, 0.00205078, 0.00830566, 0.0247119, 0.00912598, 0.305798, 0.181032, 9.83446, -1.43433, 4.68445, 0.183105, 26.2506, 91097.2
4333, 0.00205078, 0.00830566, 0.0255322, 0.00871582, 0.0171247, 0.0195711, 10.0302, -1.54114, -1.00708, -0.183105, 26.2494, 91097.3
4343, 0.00328125, 0.00543457, 0.0271729, 0.00748535, -0.249531, 0.0684988, 10.2455, 0.106812, -1.0376, -0.488281, 26.2604, 91097.6
4353, 0.00246094, 0.00625488, 0.0271729, 0.00953613, 0.0122319, 0.149229, 9.73906, 0.778198, -2.80762, -0.335693, 26.2555, 91097.4
4363, 0.00246094, 0.00502441, 0.0259424, 0.00953613, 0.374297, -0.00733915, 9.55068, -0.259399, -0.732422, -0.289917, 26.2551, 91096.9
4373, 0.00246094, 0.00789551, 0.0237891, 0.0100488, -0.269102, 0.110087, 9.97635, -0.152588, 0.442505, -0.259399, 26.2508, 91097.2
4383, 0.00410156, 0.00789551, 0.0237891, 0.0108691, 0.501509, 0.220175, 9.30849, -1.15967, 3.17383, -0.473022, 26.2457, 91096.9
4403, 0.00451172, 0.00584473, 0.0251221, 0.00871582, -0.305798, 0.117426, 10.2014, -0.640869, 0.854492, -0.137329, 26.2611, 91097
4413, 0.00287109, 0.00830566, 0.0233789, 0.00871582, -0.173693, 0.0733915, 10.0913, 0.137329, -0.915527, -0.50354, 26.2453, 91097.2
4423, 0.00287109, 0.00625488, 0.0271729, 0.00789551, 0.105195, 0.0709451, 9.65833, 0.411987, 0.411987, -0.427246, 26.2682, 91097.1
4433, 0.00164062, 0.00625488, 0.0271729, 0.00912598, -0.168801, 0.166354, 9.95434, 0.152588, -0.259399, -0.427246, 26.2564, 91096.5
4443, 0.000820312, 0.00584473, 0.0255322, 0.00953613, -0.0464813, 0.102748, 9.78798, 0.167847, -0.747681, -0.106812, 26.2487, 91096.5
4453, 0.00369141, 0.00789551, 0.0247119, 0.0100488, -0.0587132, 0.095409, 9.86137, 0.259399, -1.96838, 0.167847, 26.2508, 91097.7
4463, 0.00164062, 0.0070752, 0.0259424, 0.0116895, -0.183479, 0.136998, 10.0131, 0.640869, -4.5166, 0.976562, 26.2599, 91096.9
4473, 0.00164062, 0.00748535, 0.0267627, 0.0116895, -0.342494, 0.168801, 10.1843, 1.14441, -12.1155, 1.0376, 26.2528, 91096.3
4493, 0.00205078, 0.00584473, 0.0241992, 0.00912598, 0.0440349, -0.0146783, 9.41613, 0.12207, 2.19727, 0.442505, 26.2556, 91096.7
4503, 0.00287109, 0.00871582, 0.0263525, 0.010459, 0.0366958, 0.190818, 10.0351, 0.244141, 0.0152588, 0.0610352, 26.257, 91096.4
4513, 0, 0.00543457, 0.0247119, 0.00912598, -0.149229, -0.0758379, 9.77575, 0.167847, -2.19727, 0.564575, 26.2557, 91096.5
4523, 0, 0.0070752, 0.0263525, 0.00912598, -0.550436, 0.200604, 10.4314, 1.43433, -5.59998, 0.106812, 26.2486, 91097.2
4533, 0.00123047, 0.00625488, 0.0263525, 0.00912598, 0.327815, 0.183479, 9.47729, 0.915527, -1.40381, 0, 26.2571, 91096.7
4543, 0.00205078, 0.00625488, 0.0259424, 0.00871582, -0.117426, 0.254424, 9.76841, 0.198364, 1.80054, -0.0152588, 26.2641, 91096.7
4553, 0.000410156, 0.0070752, 0.0247119, 0.00953613, 0.298459, 0.146783, 9.29871, -0.946045, 3.90625, -0.228882, 26.2551, 91095.9
4573, 0.00246094, 0.0070752, 0.0259424, 0.00912598, -0.48683, -0.0269102, 10.4876, 0.0762939, -3.69263, -0.0762939, 26.2553, 91096.5
4583, 0, 0.00584473, 0.0259424, 0.00871582, 0.577347, 0.0782843, 9.26201, 0.0762939, -0.656128, -0.0762939, 26.244, 91096.3
4593, 0.000410156, 0.00584473, 0.0259424, 0.00830566, -0.183479, 0.0660524, 9.92498, 0.106812, -1.25122, 0.305176, 26.2509, 91096.8
4603, 0.000410156, 0.00789551, 0.0263525, 0.00953613, -0.154122, -0.100302, 10.4192, 1.92261, -5.24902, -0.686645, 26.2527, 91096.1
4613, 0.000820312, 0.00748535, 0.0267627, 0.00912598, 0.278888, -0.0611596, 9.60206, 0.595093, -1.89209, -0.411987, 26.2575, 91096.9
4623, 0.000820312, 0.00830566, 0.0237891, 0.00912598, 0.413439, 0.410993, 8.61617, -2.63977, 4.57764, -0.198364, 26.2569, 91096.7
4633, 0.000820312, 0.00584473, 0.0247119, 0.00830566, -0.11498, 0.388975, 9.48952, -5.98144, 3.76892, 0.823975, 26.2637, 91096.8
4643, 0.00287109, 0.00584473, 0.0247119, 0.00912598, 0.435456, 0.0782843, 9.57759, -2.31934, 7.46155, -0.50354, 26.2625, 91096.9
4663, 0.00164062, 0.00666504, 0.0263525, 0.00871582, -0.188372, 0.132105, 9.86382, -0.12207, 1.28174, -0.564575, 26.2604, 91097.2
4673, 0, 0.00912598, 0.0255322, 0.00830566, -0.528419, 0.178586, 10.3507, 0.198364, -3.46374, 0.0152588, 26.2549, 91096.6
4683, 0, 0.00748535, 0.0259424, 0.00830566, -0.0562668, 0.0782843, 9.82223, 0.0152588, -3.63159, 0.0610352, 26.2565, 91096.8
4693, 0.00246094, 0.00748535, 0.0259424, 0.0108691, -0.0244638, 0.0440349, 9.78064, -0.427246, -0.823975, -0.152588, 26.2626, 91096.9
4703, 0.00246094, 0.00871582, 0.0271729, 0.00789551, 0.122319, 0.0929626, 9.55802, -0.473022, 0.167847, 0.0762939, 26.2617, 91096.2
4713, 0.00246094, 0.00789551, 0.0255322, 0.00953613, 0.14189, 0.0513741, 9.73172, -0.961304, 4.80652, -0.289917, 26.2717, 91096.4
4723, 0.00123047, 0.00748535, 0.0229687, 0.0108691, 0.198157, -0.0269102, 9.41124, -0.167847, 3.84521, -0.396728, 26.2546, 91096.3
4743, 0.00123047, 0.00666504, 0.0267627, 0.00953613, -0.237299, 0.122319, 10.0449, 0.38147, -1.83105, -0.0915527, 26.2549, 91096.9
4753, 0.00205078, 0.00666504, 0.0267627, 0.0112793, 0.0391421, 0.188372, 9.81489, 0.335693, -0.671387, 0.106812, 26.263, 91096.9
4763, 0.00205078, 0.00584473, 0.0237891, 0.0100488, -0.364511, 0.146783, 9.98369, -0.411987, -3.32642, 0.350952, 26.2559, 91096.3
4773, 0.00328125, 0.00789551, 0.0255322, 0.0070752, 0.308244, 0.0684988, 9.46751, -0.305176, 0.213623, 0.335693, 26.2578, 91096.1
4783, 0.00328125, 0.0070752, 0.0267627, 0.0070752, -0.107641, 0.031803, 9.93721, 0.106812, -0.854492, 0.152588, 26.2551, 91096.7
4793, 0.00246094, 0.00666504, 0.0271729, 0.00666504, -0.00978554, 0.0220175, 9.80755, 0.595093, -0.961304, 0.274658, 26.2645, 91097
4803, 0.00123047, 0.00666504, 0.0271729, 0.0100488, -0.0293566, 0.0758379, 9.84914, 0.869751, -3.8147, 0.579834, 26.2538, 91096.6
4813, 0.000410156, 0.00912598, 0.0263525, 0.00748535, -0.207943, 0.122319, 10.04, 0.671387, -3.28064, 0.518799, 26.2568, 91096.2
4833, 0.00369141, 0.00789551, 0.027583, 0.0100488, -0.386529, 0.129658, 9.28403, 2.24304, -2.45667, -0.152588, 26.2626, 91096.1
4843, 0.00369141, 0.00410156, 0.0263525, 0.00789551, 0.540651, 0.146783, 10.0204, 0.762939, -0.62561, 0.0305176, 26.2586, 91096.5
4853, 0.00328125, 0.00410156, 0.0263525, 0.00953613, -0.396314, 0.163908, 9.45283, 0.488281, -1.19019, 0.350952, 26.2473, 91096.1
4863, 0.000410156, 0.00748535, 0.0229687, 0.00830566, 0.320476, 0.22996, 9.36476, -2.09045, 4.36401, -0.289917, 26.2541, 91096.3
4873, 0.00205078, 0.00953613, 0.0241992, 0.00953613, 0.193264, 0.112534, 9.83446, -1.78528, 4.57764, -0.259399, 26.2576, 91096.3
4883, 0.00123047, 0.00543457, 0.0267627, 0.00789551, 0.0733915, 0.124766, 10.2455, -1.0376, 6.94275, -0.640869, 26.2535, 91096.3
4893, 0.00123047, 0.00502441, 0.0255322, 0.00789551, -0.217728, -0.00733915, 9.0345, -0.717163, 7.0343, -1.69373, 26.2564, 91096
4933, 0.00123047, 0.00666504, 0.0255322, 0.00953613, -0.638506, 0.408546, 9.31828, -1.60217, 4.2572, 0.396728, 26.2613, 91096.5
4943, 0.00123047, 0.00830566, 0.0259424, 0.00953613, 0.790182, 0.171247, 10.2283, -2.02942, 4.0741, 0.198364, 26.2592, 91096.2
4953, 0.00164062, 0.00830566, 0.0259424, 0.00953613, -0.648292, -0.00733915, 9.83691, -1.0376, 3.20435, -0.823975, 26.2537, 91096.7
4963, 0.000410156, 0.00584473, 0.0263525, 0.00830566, 0.200604, -0.0905162, 10.0155, 0.198364, -2.48718, -0.259399, 26.2575, 91096.9
4973, 0.00123047, 0.00871582, 0.0251221, 0.00830566, -0.127212, 0.0782843, 9.93232, 0.839233, -3.20435, -0.12207, 26.2562, 91096.2
4983, 0.00287109, 0.00625488, 0.0241992, 0.00871582, -0.134551, 0.210389, 9.56781, 0.12207, -2.70081, 0.473022, 26.2657, 91096.5
4993, 0.00287109, 0.0108691, 0.0241992, 0.00871582, 0.127212, 0.166354, 9.28158, -1.06812, 0.366211, 0.213623, 26.259, 91096.6
5003, 0.00123047, 0.00748535, 0.0263525, 0.0112793, 0.354726, 0.132105, 9.65588, -0.900268, 6.5155, 0.610352, 26.2657, 91096.7
5023, 0.00369141, 0.00830566, 0.0233789, 0.00912598, -0.0269102, 0.0709451, 9.88339, -0.427246, 4.5166, -0.595093, 26.252, 91096
5033, 0.00328125, 0.00584473, 0.0255322, 0.0100488, 0.0195711, 0.0709451, 9.94211, -0.152588, 3.34167, -0.854492, 26.2589, 91096.6
5043, 0.00205078, 0.00584473, 0.0251221, 0.0100488, -0.136998, 0.136998, 10.0179, 0, -0.457764, -0.595093, 26.2553, 91096.3
5053, 0.00205078, 0.00912598, 0.0263525, 0.0112793, -0.251978, 0.134551, 9.90052, -0.0610352, -0.595093, -0.244141, 26.2601, 91096.8
5063, 0.000820312, 0.00912598, 0.0263525, 0.00912598, -0.102748, 0.102748, 9.97391, -0.0457764, -2.09045, 0.106812, 26.2534, 91096.9
5073, 0.00205078, 0.00666504, 0.0267627, 0.00871582, -0.183479, 0.0440349, 9.84425, 0.213623, -2.45667, 0.106812, 26.2691, 91096
5083, 0.00164062, 0.00748535, 0.0279932, 0.00830566, -0.144337, 0.0733915, 9.82957, 0.411987, -4.01306, 0.549316, 26.2611, 91096.8
5103, 0.00205078, 0.00871582, 0.0237891, 0.00912598, 0.0758379, 0.0880698, 9.76841, 0.442505, -3.61633, 0.457764, 26.2507, 91096.9
5113, -0.000820312, 0.00871582, 0.0237891, 0.00912598, 0.124766, 0.0464813, 9.70236, 0.62561, -1.06812, 0.305176, 26.2451, 91096.7
5123, 0.00164062, 0.00871582, 0.0241992, 0.00748535, 0.0709451, 0.0415885, 9.81245, 0.62561, -1.32751, 0.350952, 26.2589, 91096.6
5133, 0, 0.00830566, 0.0247119, 0.010459, -0.127212, 0.149229, 9.89318, 0.762939, -1.64795, 0.793457, 26.2651, 91096.9
5143, -0.000410156, 0.00502441, 0.0225586, 0.00953613, -0.0929626, 0.281334, 10.8791, 1.58691, -10.0403, 1.2207, 26.2626, 91096
5153, -0.000410156, 0.00748535, 0.0267627, 0.00953613, -0.863574, 0.100302, 9.40879, 2.13623, -5.67627, 0.259399, 26.2553, 91096.8
5163, 0.00164062, 0.00748535, 0.0267627, 0.00789551, 0.408546, 0.173693, 9.40879, 1.90735, -3.64685, 0.183105, 26.2537, 91097.3
5173, 0.00123047, 0.00912598, 0.0279932, 0.00871582, 0.293566, 0.325369, 9.35008, -0.289917, 0.0610352, 0.183105, 26.2607, 91096.9
5193, 0.00164062, 0.00666504, 0.0247119, 0.00748535, 0.100302, 0.112534, 9.86871, -1.70898, 4.85229, -0.12207, 26.2547, 91097
5203, 0.00287109, 0.00912598, 0.0255322, 0.00748535, 0.110087, 0.0366958, 10.1965, -0.88501, 4.22668, -0.38147, 26.2615, 91097.2
5213, 0.00287109, 0.00625488, 0.0279932, 0.0112793, -0.247085, 0.0978554, 9.83936, -0.137329, 2.0752, -0.38147, 26.2604, 91096.2
5223, 0.00164062, 0.00625488, 0.0279932, 0.010459, -0.0513741, 0.095409, 10.2406, 0.228882, 0.213623, -0.320435, 26.2657, 91097
5233, 0.00287109, 0.00912598, 0.0259424, 0.0112793, -0.366958, 0.0146783, 10.1598, 1.84631, -2.68555, -0.549316, 26.2497, 91096.3
5243, 0, 0.0070752, 0.0263525, 0.0108691, 0.119873, 0.11498, 8.8657, 1.84631, -3.87573, -0.473022, 26.2505, 91096.8
5253, 0.00410156, 0.00871582, 0.0284033, 0.0108691, -0.136998, 0.491723, 9.34519, -2.36511, -2.44141, 0.839233, 26.2684, 91096.8
5273, 0.00205078, 0.00748535, 0.0241992, 0.010459, -0.146783, 0.095409, 10.1672, -1.70898, -2.02942, 0.976562, 26.2559, 91096.3
5283, 0.00123047, 0.0070752, 0.0263525, 0.00871582, -0.0366958, -0.100302, 10.15, 0.38147, -1.8158, 1.05286, 26.2622, 91096.5
5293, 0.00164062, 0.00666504, 0.0263525, 0.0100488, 0.217728, 0.313137, 9.46261, 0.442505, -4.45557, 0.732422, 26.2648, 91096.5
5303, 0.00328125, 0.00871582, 0.0225586, 0.00666504, -0.0122319, 0.110087, 9.72927, 0.518799, -1.28174, 1.37329, 26.2592, 91096.5
5313, 0.00328125, 0.0100488, 0.027583, 0.00666504, 0.266656, -0.0660524, 9.51399, -0.396728, 1.64795, 0.839233, 26.2636, 91096.4
5323, 0.000820312, 0.0100488, 0.027583, 0.00871582, 0.247085, -0.144337, 9.56292, -1.26648, 3.64685, -0.0915527, 26.2511, 91096.8
5333, 0.00164062, 0.00748535, 0.0241992, 0.00789551, -0.0464813, 0.100302, 10.0473, -1.12915, 4.97437, -0.0610352, 26.2601, 91096.4
5343, 0.000820312, 0.00789551, 0.0241992, 0.0112793, 0.0220175, 0.00244638, 9.78064, -0.50354, 2.71606, -0.0915527, 26.2584, 91096.6
5363, 0.00164062, 0.00625488, 0.0241992, 0.010459, -0.110087, 0.0342494, 9.74395, 0.0762939, 0, -0.396728, 26.2678, 91096.5
5373, 0.00246094, 0.00625488, 0.0241992, 0.00912598, -0.0122319, 0.14189, 9.71459, 0.228882, -0.686645, -0.411987, 26.2603, 91096.5
5383, 0.000820312, 0.00748535, 0.0267627, 0.0100488, -0.244638, 0.151676, 9.86627, 0.213623, 2.94495, -0.366211, 26.257, 91096.8
5393, 0.00287109, 0.00789551, 0.0241992, 0.00830566, -0.0831771, 0.144337, 10.0326, 0.0762939, 2.47192, -0.335693, 26.2495, 91096.9
5403, 0.00246094, 0.00748535, 0.0263525, 0.0100488, 0.200604, 0.0562668, 9.68524, 0.12207, -0.228882, 0, 26.2545, 91096.9
5413, 0.00246094, 0.00789551, 0.0237891, 0.0100488, 0.181032, 0.0195711, 9.74395, 0.320435, 0.350952, 0, 26.2556, 91096.4
5423, 0.00246094, 0.00543457, 0.0237891, 0.00871582, -0.188372, 0.112534, 9.90296, 0.793457, 0.762939, 0.0610352, 26.2613, 91096.2
5443, 0.00205078, 0.00543457, 0.0251221, 0.0070752, -0.0905162, 0.156569, 9.83446, 0.488281, -2.53296, 0.442505, 26.2589, 91096.4
5453, 0.00164062, 0.00789551, 0.0263525, 0.0100488, -0.457474, 0.149229, 10.2063, 0.50354, -3.31116, 0.701904, 26.2602, 91096.3
5463, 0.000820312, 0.00871582, 0.0259424, 0.0100488, 0.308244, -0.117426, 9.64609, 0.839233, -2.33459, 0.335693, 26.2638, 91096.1
5473, 0.000820312, 0.00666504, 0.0251221, 0.00789551, 0.234853, 0.117426, 9.56047, 0.610352, -1.19019, 0.12207, 26.2674, 91096.4
5483, 0.00246094, 0.00666504, 0.0251221, 0.00912598, 0.205496, 0.112534, 9.61674, 0.167847, -2.05994, 0.305176, 26.2675, 91097.1
5493, 0.000820312, 0.00666504, 0.027583, 0.00912598, 0.0807307, 0.105195, 9.66811, -0.62561, 1.7395, 0.0762939, 26.2716, 91096.8
5503, 0.00205078, 0.00912598, 0.0267627, 0.00912598, 0.234853, 0.0978554, 9.55802, -0.62561, 4.73022, -0.350952, 26.2635, 91096.3
5513, 0.00123047, 0.00451172, 0.0241992, 0.0112793, -0.29112, 0.0856234, 10.0718, -0.961304, 5.41687, -0.595093, 26.262, 91096.8
5533, 0.00205078, 0.00830566, 0.0237891, 0.00953613, -0.293566, 0.198157, 10.1476, -0.137329, -4.45557, -0.167847, 26.256, 91096.2
5543, 0.00205078, 0.00666504, 0.0263525, 0.0116895, 0.00244638, 0.161461, 9.85404, -0.335693, -5.20325, 0.350952, 26.2661, 91097
5553, 0.000410156, 0.00625488, 0.0263525, 0.0100488, -0.222621, 0.0611596, 10.0179, 0.0762939, -7.06482, 0.991821, 26.2599, 91096.8
5563, 0.00451172, 0.0070752, 0.0259424, 0.0070752, 1.00057, 0.0587132, 8.39354, 0.0915527, -0.610352, 1.40381, 26.2497, 91096
5573, 0.00451172, 0.0070752, 0.0255322, 0.0070752, 0.112534, -0.0489277, 9.56047, -1.34277, 7.72095, -0.137329, 26.259, 91097
5583, 0.00164062, 0.0070752, 0.0255322, 0.010459, -0.594471, 0.222621, 10.7078, -1.70898, 5.35583, -1.4801, 26.2591, 91096.5
5593, -0.000410156, 0.00451172, 0.0237891, 0.010459, -0.310691, -0.100302, 10.2234, 0.38147, 0.50354, -0.473022, 26.2526, 91096.6
5603, 0.00246094, 0.0070752, 0.0233789, 0.00748535, -0.171247, 0.20305, 10.1207, 1.20544, -6.95801, -0.0457764, 26.2646, 91097
5623, 0.000410156, 0.00871582, 0.0237891, 0.00953613, 0.354726, 0.188372, 9.19106, -1.34277, 1.8158, -0.152588, 26.2639, 91096.9
5633, 0.000410156, 0.00871582, 0.0267627, 0.00871582, 0.43301, -0.031803, 9.47974, -0.747681, 4.92859, 0.167847, 26.2552, 91097
5643, 0.000820312, 0.00789551, 0.0267627, 0.00789551, -0.37185, 0.00733915, 9.99593, -0.793457, 6.5918, -0.457764, 26.2658, 91097
5653, -0.000410156, 0.00543457, 0.0251221, 0.00789551, 0.474599, -0.0709451, 9.36476, -0.640869, 8.75854, -0.930786, 26.2634, 91096.8
5663, 0.000820312, 0.0070752, 0.0229687, 0.00871582, -0.362065, 0.0782843, 10.0644, -0.396728, 8.7738, -0.793457, 26.2617, 91097.2
5673, 0.00164062, 0.00666504, 0.0263525, 0.00871582, -0.0733915, 0.0709451, 9.79043, -0.213623, 5.37109, -0.564575, 26.2571, 91096.7
5683, 0.00164062, 0.0100488, 0.0247119, 0.00789551, -0.242192, 0.154122, 9.97391, 0.0610352, 4.27246, -0.579834, 26.2652, 91096.2
5723, 0.000410156, 0.00748535, 0.0241992, 0.00830566, -0.00733915, 0.117426, 9.79532, 0.38147, -2.09045, 0.198364, 26.2673, 91096.8
5733, 0.000410156, 0.0070752, 0.0267627, 0.00830566, -0.14189, 0.0391421, 9.9103, 0.564575, -3.69263, 0.198364, 26.2573, 91096.8
5743, 0.00246094, 0.0070752, 0.0267627, 0.00871582, -0.132105, 0.0587132, 9.86627, 1.02234, -4.95911, 0.350952, 26.2529, 91096.4
5753, 0.00246094, 0.00871582, 0.0255322, 0.00953613, -0.0122319, 0.0929626, 9.73661, 1.00708, -4.71497, 0.686645, 26.265, 91097
5763, 0, 0.00502441, 0.0233789, 0.0100488, -0.0660524, 0.102748, 9.76841, 0.62561, -4.15039, 0.656128, 26.2634, 91096.2
5773, 0.00123047, 0.00748535, 0.0237891, 0.00789551, 0.0171247, 0.100302, 9.78554, 0.213623, -4.40979, 0.747681, 26.2608, 91097.3
5783, 0.00123047, 0.00912598, 0.027583, 0.00789551, -0.031803, 0.119873, 9.73172, 0.411987, -3.26538, 0.930786, 26.2618, 91096.7
5793, 0.00287109, 0.00912598, 0.027583, 0.0070752, -0.154122, 0.0366958, 10.3653, 1.2207, -8.60596, 1.60217, 26.2619, 91097.1
5813, 0.00123047, 0.00748535, 0.0263525, 0.00953613, 0.144337, 0.283781, 9.30849, 1.66321, -3.44849, 0.0915527, 26.2516, 91096.6
5823, 0.00123047, 0.00666504, 0.0259424, 0.00912598, 0.308244, 0.425671, 9.59717, -0.564575, 0.518799, 0.106812, 26.2527, 91096.2
5833, 0.00205078, 0.00666504, 0.027583, 0.00912598, -0.0782843, 0.0978554, 9.81, -1.60217, 2.01416, 0, 26.2589, 91097.3
5843, 0.00205078, 0.00666504, 0.0241992, 0.00789551, 0.171247, 0.0146783, 9.68279, -1.4801, 1.89209, -0.0915527, 26.2735, 91096.1
5853, -0.000820312, 0.00789551, 0.0241992, 0.00871582, -0.0880698, 0.0464813, 9.95923, -1.15967, 0.518799, -0.167847, 26.2572, 91096.2
5863, 0.00205078, 0.00584473, 0.0241992, 0.00953613, 0.0758379, -0.0856234, 9.56781, -1.05286, 2.39563, -0.137329, 26.2543, 91096.5
5873, 0.00164062, 0.00666504, 0.0251221, 0.00953613, 0.105195, -0.0171247, 9.82223, -0.305176, 2.89917, -0.427246, 26.2637, 91096.3
5893, 0.00164062, 0.0070752, 0.0259424, 0.00830566, -0.853788, 0.0684988, 10.9843, 1.8158, -4.40979, -0.167847, 26.2663, 91096.2
5903, 0.000410156, 0.0070752, 0.0259424, 0.00912598, 0.496616, 0.134551, 8.58681, 1.86157, 0.38147, -0.12207, 26.2756, 91097.4
5913, 0.00123047, 0.00666504, 0.0255322, 0.010459, 0.325369, 0.271549, 9.15682, -2.19727, -2.67029, 1.41907, 26.2634, 91096.2
5923, 0.00164062, 0.00789551, 0.0259424, 0.00789551, -0.508848, 0.401207, 10.7592, -3.7384, 1.41907, 1.25122, 26.2576, 91096.2
5933, 0.00246094, 0.00543457, 0.0251221, 0.010459, 0.261763, -0.134551, 9.72438, -1.41907, 1.66321, 0.518799, 26.2565, 91097.2
5943, 0.00246094, 0.00666504, 0.0233789, 0.010459, -0.127212, 0.193264, 10.062, -0.457764, -0.930786, -0.457764, 26.2587, 91096.9
5953, -0.000410156, 0.00666504, 0.0233789, 0.0100488, 0.242192, 0.0464813, 9.55802, -0.62561, 0.274658, -0.305176, 26.2602, 91097
5963, 0.000410156, 0.00830566, 0.0259424, 0.00830566, 0.00244638, -0.0342494, 9.83936, 0.228882, 0.671387, -0.137329, 26.2563, 91096.5
5983, -0.000410156, 0.00748535, 0.0263525, 0.00830566, 0.20305, 0.205496, 9.57759, -0.0610352, 0.305176, -0.686645, 26.2641, 91096.7
5993, 0.00328125, 0.00625488, 0.0267627, 0.00830566, 0.210389, 0.220175, 9.68768, -0.778198, 6.30188, -0.396728, 26.2532, 91096.9
6003, 0.00328125, 0.00625488, 0.0267627, 0.0112793, -0.234853, 0.134551, 10.0449, -0.534058, 5.46265, -0.137329, 26.2607, 91096.6
6013, 0.000410156, 0.00830566, 0.0241992, 0.00871582, -0.0293566, 0.159015, 9.86382, -0.396728, 5.05066, -0.717163, 26.2586, 91096.8
6023, 0.000820312, 0.00789551, 0.0241992, 0.0100488, -0.193264, 0.0733915, 10.0351, -0.0305176, 1.14441, -0.473022, 26.2646, 91097.3
6033, 0.00205078, 0.00666504, 0.0267627, 0.010459, 0.0195711, 0.0880698, 9.80511, 0.183105, 1.86157, -0.595093, 26.27, 91096.7
6043, 0.00287109, 0.0070752, 0.0292236, 0.010459, -0.183479, 0.0122319, 9.89318, 0.228882, 0.38147, -0.442505, 26.2713, 91097.1
6063, 0.00123047, 0.00543457, 0.0271729, 0.010459, -0.00244638, 0.0782843, 9.81, 0.198364, 0.305176, 0.0610352, 26.2561, 91096.9
6073, 0.00328125, 0.00789551, 0.0259424, 0.00953613, 0.0293566, 0.100302, 9.79532, 0.396728, -0.0152588, 0.106812, 26.2667, 91096.9
6083, 0.000820312, 0.00625488, 0.0279932, 0.00912598, -0.220175, 0.0733915, 9.98369, 0.137329, -4.3335, 0.50354, 26.2727, 91097.1
6093, 0, 0.00953613, 0.0247119, 0.00912598, 0.132105, 0.119873, 9.59961, 0.564575, 1.40381, 0.0762939, 26.2544, 91096.7
6103, 0, 0.00543457, 0.0229687, 0.00830566, 0.00489277, 0.154122, 9.85404, 0.167847, -1.49536, 0.335693, 26.2662, 91097.3
6113, 0.00123047, 0.00543457, 0.0229687, 0.00871582, -0.528419, 0.00489277, 10.2332, 0.823975, -0.427246, 0.976562, 26.2555, 91097.3
6123, 0.00205078, 0.00871582, 0.0263525, 0.00830566, 0.396314, -0.0489277, 10.3017, -0.747681, 4.44031, -1.02234, 26.2712, 91096.9
6203, 0.000820312, 0.00666504, 0.0247119, 0.0100488, -0.601811, 0.313137, 10.4338, 0.106812, 0.991821, -0.610352, 26.2539, 91097.4
6213, 0.000820312, 0.00666504, 0.0247119, 0.0112793, 0.0146783, 0.132105, 9.76597, 0.488281, -7.5531, 0.274658, 26.2633, 91097
6223, 0.00328125, 0.00666504, 0.0255322, 0.00871582, 0.159015, 0.168801, 9.63141, 0.564575, -8.39233, 1.0376, 26.2595, 91097.6
6233, 0.000410156, 0.00871582, 0.0247119, 0.00953613, 0.410993, 0.105195, 9.35253, -0.50354, -0.686645, 0.62561, 26.2621, 91096.7
6243, 0.000410156, 0.00502441, 0.0255322, 0.00912598, 0.415885, 0.0195711, 9.32562, -1.00708, 5.06592, -0.0915527, 26.2561, 91097.3
6253, -0.000820312, 0.00666504, 0.0247119, 0.00912598, -0.269102, 0.190818, 10.1329, -1.19019, 5.37109, -1.46484, 26.2708, 91097.5
6263, -0.000820312, 0.00666504, 0.0251221, 0.00871582, -0.552883, -0.031803, 9.91764, 0.0305176, 1.80054, -0.656128, 26.2639, 91096.8
6283, 0.00164062, 0.00830566, 0.0247119, 0.0070752, 0.212835, 0.25687, 9.70481, -0.0610352, 0.808716, -0.320435, 26.2559, 91098.1
6293, -0.000410156, 0.00584473, 0.0259424, 0.00830566, -0.340047, 0.134551, 10.0351, -0.0915527, -1.67847, 0.396728, 26.2677, 91097.2
6303, 0.000410156, 0.00625488, 0.0241992, 0.00830566, 0.408546, -0.190818, 9.2351, -0.0762939, 2.94495, 0.274658, 26.2807, 91097.4
6313, 0.000410156, 0.00625488, 0.0251221, 0.00789551, 0.0733915, 0.22996, 9.89562, -0.0305176, 4.69971, -0.411987, 26.2754, 91096.8
6323, 0.000410156, 0.00830566, 0.0251221, 0.00748535, 0.00489277, 0.139444, 9.92987, -0.137329, 4.776, -0.640869, 26.2604, 91097.6
6333, 0.00123047, 0.00584473, 0.0233789, 0.00789551, -0.0587132, 0.127212, 9.7782, -0.0305176, 2.2583, -0.50354, 26.2658, 91097.4
6343, 0.00328125, 0.00625488, 0.0263525, 0.00912598, -0.122319, 0.159015, 9.93232, -0.0915527, 3.69263, -0.610352, 26.2632, 91097.3
6353, 0.000410156, 0.0100488, 0.0263525, 0.00912598, -0.095409, 0.0684988, 9.84425, -0.244141, 0.900268, -1.02234, 26.2611, 91097.1
6373, 0.00164062, 0.00625488, 0.0233789, 0.00830566, -0.0171247, 0.0195711, 9.76841, -0.0610352, 1.0376, -0.213623, 26.2722, 91097
6383, 0.00123047, 0.00584473, 0.0247119, 0.00912598, -0.161461, 0.0807307, 9.86627, 0.289917, -0.0762939, -0.106812, 26.2717, 91097
6393, 0.00246094, 0.00584473, 0.0267627, 0.00953613, -0.0489277, 0.0905162, 9.89073, 0.427246, -0.961304, 0.183105, 26.2646, 91097.2
6403, 0.00328125, 0.00830566, 0.0251221, 0.0112793, 0, 0.0880698, 9.76107, 0.518799, -0.518799, 0.183105, 26.268, 91097.3
6413, 0, 0.00871582, 0.0247119, 0.0112793, -0.352279, 0.195711, 10.0791, 0.488281, -2.48718, 0.518799, 26.2698, 91097.8
6423, 0, 0.00871582, 0.0247119, 0.0112793, 0.278888, 0.107641, 9.44549, -0.259399, -4.79126, 0.488281, 26.2683, 91096.8
6433, 0.00246094, 0.00543457, 0.0247119, 0.00789551, -0.4061, 0.122319, 10.0424, 0.213623, -2.89917, 0.793457, 26.2719, 91097.2
6453, 0.000820312, 0.00625488, 0.0237891, 0.00953613, 0.0391421, 0.105195, 9.77575, 1.05286, -7.50732, 0.747681, 26.2585, 91097.4
6463, 0.00123047, 0.00625488, 0.0271729, 0.00953613, 0.0929626, 0.107641, 9.75373, 0.793457, -5.06592, 0.106812, 26.2749, 91096.2
6473, 0.00123047, 0.00625488, 0.0247119, 0.0070752, 0.14189, 0.0929626, 9.65833, 0.671387, -4.47083, -0.0152588, 26.2642, 91096.6
6483, 0.00164062, 0.00584473, 0.0247119, 0.0100488, 0.273995, 0.105195, 9.32072, -0.0152588, -0.0610352, -0.259399, 26.2682, 91096.9
6493, 0.00246094, 0.00830566, 0.0251221, 0.0108691, 0.22996, 0.0905162, 9.54334, -0.793457, 2.02942, -0.534058, 26.2697, 91097.4
6503, 0.000820312, 0.00953613, 0.0229687, 0.00625488, -0.29112, 0.212835, 10.2748, -0.656128, 3.8147, -0.350952, 26.2558, 91097.4
6513, 0.00164062, 0.00666504, 0.0259424, 0.00625488, 0.212835, 0.166354, 9.62407, -0.411987, 1.40381, -0.289917, 26.2617, 91097.2
6523, 0.00164062, 0.00666504, 0.0263525, 0.00666504, 0.278888, 0.171247, 9.7733, -0.564575, 2.68555, -0.88501, 26.2714, 91097.1
6543, 0.000410156, 0.00830566, 0.0263525, 0.00789551, -0.325369, 0.25687, 10.0889, -0.640869, 3.34167, -0.686645, 26.285, 91097.2
6553, 0.00205078, 0.00748535, 0.0229687, 0.00871582, 0.550436, -0.0880698, 9.35497, -0.320435, -9.35364, 0.350952, 26.2807, 91096.6
6563, 0.00123047, 0.00830566, 0.0251221, 0.00871582, -0.37919, 0.0440349, 9.80511, -0.640869, 3.86047, 0.808716, 26.2661, 91096.8
6573, 0.00123047, 0.00830566, 0.0247119, 0.010459, 0.550436, 0.0587132, 9.37944, -2.21252, 3.76892, 0.640869, 26.2652, 91097.5
6583, 0.000410156, 0.00830566, 0.0247119, 0.00830566, -0.234853, -0.063606, 10.2063, -2.12097, 5.52368, 0.167847, 26.2756, 91097
6593, 0.00123047, 0.00789551, 0.0251221, 0.00748535, -0.325369, -0.0929626, 10.314, -0.411987, -2.50244, -0.839233, 26.2624, 91096.7
6603, 0.000820312, 0.00748535, 0.0247119, 0.00748535, 0.207943, 0.100302, 9.66322, 1.4801, -2.68555, 0.0457764, 26.2711, 91097
6623, 0.00205078, 0.00789551, 0.0263525, 0.00871582, 0.721683, 0.129658, 8.85346, -0.244141, -2.54822, -0.0915527, 26.2617, 91096.8
6633, 0.00205078, 0.00789551, 0.0263525, 0.010459, -0.124766, 0.0807307, 9.9152, -0.946045, 0.564575, 0.152588, 26.2778, 91097
6643, 0.00164062, 0.00666504, 0.0267627, 0.010459, 0.183479, 0.0415885, 9.5727, -1.11389, 3.26538, 0.0610352, 26.2648, 91096.9
6653, 0.00328125, 0.00830566, 0.0255322, 0.0108691, -0.183479, 0.0122319, 9.98859, -0.701904, 3.02124, -0.106812, 26.2592, 91097.1
6663, 0.000410156, 0.00871582, 0.0267627, 0.0100488, -0.146783, 0.139444, 10.084, -0.0915527, -0.518799, 0.106812, 26.265, 91097.1
6673, 0.00328125, 0.00666504, 0.0267627, 0.0100488, -0.178586, 0.095409, 10.0424, 0.473022, -3.08228, -0.0152588, 26.269, 91096.2
6683, 0.00328125, 0.00666504, 0.0288135, 0.00953613, 0.00489277, 0.0660524, 9.78554, 0.762939, -4.18091, 0.0762939, 26.2761, 91096.5
6693, 0.00205078, 0.0070752, 0.0288135, 0.00830566, 0.276441, 0.0733915, 9.39656, 0.473022, -1.08337, -0.183105, 26.2517, 91097
6713, 0.00205078, 0.00789551, 0.0271729, 0.00748535, -0.0489277, 0.159015, 9.95678, 0.259399, 4.57764, -0.427246, 26.2667, 91097.1
6723, 0.00246094, 0.00789551, 0.0271729, 0.00748535, -0.100302, 0.146783, 9.90296, 0.320435, 2.62451, -0.534058, 26.2639, 91097.3
6733, 0.00246094, 0.00789551, 0.0279932, 0.0100488, -0.117426, 0.171247, 9.93721, 0.274658, 0.62561, -0.0152588, 26.2673, 91096.5
6743, 0.00287109, 0.00830566, 0.0279932, 0.00953613, 0.0366958, 0.127212, 9.80511, 0.427246, 0.0610352, -0.0152588, 26.2853, 91096.8
6753, 0.00205078, 0.0070752, 0.0255322, 0.00953613, 0.0171247, 0.0440349, 9.71459, 0.350952, 1.54114, -0.0915527, 26.2569, 91097.1
6763, 0.00205078, 0.00584473, 0.0251221, 0.00830566, -0.222621, -0.0220175, 9.9152, 0.610352, 0.961304, 0.0305176, 26.2727, 91096.5
6773, 0.00369141, 0.00871582, 0.027583, 0.00830566, -0.281334, 0.0122319, 9.99348, 0.793457, -2.42615, 0.38147, 26.2676, 91096.5
6793, 0.00164062, 0.00953613, 0.0263525, 0.00830566, -0.376743, -0.00244638, 10.1721, 1.2207, -3.89099, 0.152588, 26.2713, 91097.2
6803, 0.000410156, 0.00584473, 0.0233789, 0.00912598, 0.366958, -0.0195711, 9.6412, 1.4801, -5.56946, -0.305176, 26.2755, 91096.9
6813, 0.000820312, 0.00789551, 0.0271729, 0.00953613, 0.29112, 0.031803, 9.56536, 1.38855, -4.5929, -0.946045, 26.2768, 91097.1
6823, -0.000410156, 0.00584473, 0.0292236, 0.00953613, 0.0538205, 0.251978, 9.69502, 1.12915, -1.32751, -1.64795, 26.2669, 91097.2
6833, 0.000820312, 0.0108691, 0.0271729, 0.00953613, 0.217728, 0.156569, 9.46261, -0.305176, 0.732422, -1.9989, 26.2659, 91096.2
6843, 0.000820312, 0.0108691, 0.0271729, 0.00748535, 0.127212, 0.139444, 9.50665, -1.8158, 4.54712, -2.63977, 26.2751, 91096.8
6853, -0.000410156, 0.00287109, 0.0259424, 0.0108691, 0.386529, 0.0562668, 9.73172, -2.76184, 7.90405, -2.91443, 26.2668, 91096.7
6863, 0.00246094, 0.0070752, 0.0259424, 0.0108691, -0.193264, 0.266656, 10.0693, -1.19019, 7.26318, -2.38037, 26.269, 91097
6903, 0.00410156, 0.00789551, 0.0267627, 0.0108691, -0.452581, 0.198157, 10.1819, 0.442505, -7.32422, 0.976562, 26.2691, 91097.8
6913, 0.000410156, 0.00871582, 0.0247119, 0.00912598, 0.775504, 0.00978554, 9.00269, 0, -6.24084, 0.747681, 26.2722, 91097.2
6923, -0.000820312, 0.00625488, 0.0237891, 0.0112793, 0.102748, 0.185925, 9.46017, -1.08337, 2.70081, 0.305176, 26.2675, 91097
6933, 0.00287109, 0.00912598, 0.0267627, 0.0112793, 0.0978554, 0.249531, 10.1256, -1.72424, 4.3335, -0.0915527, 26.2653, 91096.4
6943, 0.00287109, 0.00912598, 0.027583, 0.0112793, -0.592025, 0.185925, 10.5341, -1.63269, -2.33459, -0.946045, 26.2674, 91097
6953, 0.000410156, 0.00748535, 0.027583, 0.0100488, 0.20305, -0.144337, 9.68279, 0.823975, -5.35583, 0.12207, 26.2784, 91097.2
6963, 0.00164062, 0.00543457, 0.0241992, 0.010459, -0.163908, 0.0611596, 9.79777, 0.732422, -4.5929, -0.167847, 26.275, 91096.7
6983, 0.00205078, 0.00748535, 0.0263525, 0.00666504, 0.107641, 0.149229, 9.4039, -0.656128, 5.56946, 0.442505, 26.2822, 91097.3
6993, 0.00287109, 0.00748535, 0.0263525, 0.00871582, -0.237299, 0.0391421, 10.2014, -1.35803, 7.0343, 0.0152588, 26.2696, 91097.3
7003, 0.00287109, 0.00748535, 0.0263525, 0.0100488, 0.124766, 0.095409, 9.8785, -0.656128, 3.26538, -0.228882, 26.2784, 91096.5
7013, -0.000820312, 0.0070752, 0.0237891, 0.00789551, -0.151676, 0.134551, 10.0815, -0.198364, 0.640869, -0.305176, 26.2709, 91096.8
7023, 0.000820312, 0.00666504, 0.0247119, 0.00953613, 0.00733915, 0.0684988, 9.8467, 0.473022, -0.579834, -0.228882, 26.2707, 91096.8
7033, 0.00164062, 0.00871582, 0.0251221, 0.00953613, 0.0929626, 0.0489277, 9.65343, 0.12207, -0.930786, -0.213623, 26.2807, 91096.6
7043, 0.00205078, 0.00666504, 0.0255322, 0.00953613, 0.0758379, -0.0146783, 9.62407, -0.244141, 1.44958, -0.38147, 26.2816, 91096.6
7053, 0.00205078, 0.00666504, 0.0255322, 0.00953613, 0.0244638, 0.0244638, 9.71948, -0.137329, 3.2196, -0.701904, 26.2716, 91096.5
7073, 0.00287109, 0.00912598, 0.0259424, 0.0100488, -0.195711, 0.100302, 9.99837, 0, 2.83813, -0.442505, 26.2748, 91097
7083, 0.000820312, 0.00871582, 0.0259424, 0.00789551, 0.00978554, 0.129658, 9.81734, 0.228882, 1.08337, -0.274658, 26.2806, 91096.5
7093, 0.00369141, 0.00871582, 0.0251221, 0.00789551, 0.0562668, 0.178586, 9.78554, 0.167847, 0.411987, -0.244141, 26.2754, 91096.5
7103, 0.00369141, 0.00871582, 0.0251221, 0.00912598, -0.222621, 0.207943, 10.0204, 0.0610352, -1.43433, -0.198364, 26.2745, 91096.4
7113, 0.00164062, 0.00789551, 0.0251221, 0.010459, 0.0415885, 0.168801, 9.7415, -0.198364, -1.11389, -0.198364, 26.2681, 91096.5
7123, 0.00205078, 0.00748535, 0.0251221, 0.00912598, -0.0269102, 0.0709451, 9.79043, -0.198364, -1.05286, 0.289917, 26.2737, 91096.5
7133, 0, 0.00666504, 0.0241992, 0.010459, 0.300905, 0.129658, 9.44794, -0.244141, -0.518799, 0.411987, 26.2764, 91096.6
7153, 0.00205078, 0.00666504, 0.0251221, 0.00830566, 0.269102, 0.0146783, 9.49442, 0.823975, -1.78528, 0.289917, 26.2809, 91097.1
7163, 0.00369141, 0.00625488, 0.0251221, 0.00912598, 0.134551, 0.100302, 9.63875, 0.198364, 0.244141, 0.396728, 26.2794, 91096.6
7173, 0.00287109, 0.00625488, 0.0247119, 0.00748535, 0.0391421, 0.0831771, 9.69257, 0.0610352, 2.24304, 0.320435, 26.2789, 91096.3
7183, 0.00287109, 0.0070752, 0.0247119, 0.00912598, -0.232406, 0.183479, 10.0204, 0.0915527, 1.90735, 0.213623, 26.2858, 91097
7193, 0, 0.00789551, 0.0259424, 0.00912598, 0.0464813, 0.178586, 9.73416, -0.0762939, 0.717163, 0.442505, 26.2686, 91096.2
7203, 0.000820312, 0.00789551, 0.0267627, 0.0112793, -1.10332, 0.210389, 10.8937, 0.793457, -3.41797, 0.442505, 26.2726, 91096.8
7213, 0.000820312, 0.00502441, 0.0267627, 0.00830566, 1.00057, 0.00978554, 8.65775, 0.473022, -1.4801, 0.0762939, 26.2755, 91096.5
7223, 0, 0.00502441, 0.0259424, 0.00912598, -0.151676, 0.193264, 9.93477, -0.320435, 3.06702, 0.259399, 26.2782, 91096.9
7243, 0.00123047, 0.00748535, 0.0251221, 0.00789551, -0.139444, 0.00244638, 9.99103, -0.732422, 1.06812, 0.152588, 26.2737, 91096.5
7253, 0.000820312, 0.00830566, 0.0255322, 0.00789551, -0.29112, 0.0195711, 10.106, 0.244141, -2.62451, -0.152588, 26.2783, 91096.8
7263, 0.000820312, 0.00830566, 0.0255322, 0.00830566, 0.0122319, 0.0831771, 9.74395, 0.961304, -1.34277, 0.320435, 26.2775, 91097.2
7273, 0.00123047, 0.00666504, 0.0247119, 0.0108691, -0.347387, 0.20305, 10.1134, 0.88501, -6.7749, 0.930786, 26.2724, 91097
7283, 0.00246094, 0.00543457, 0.0247119, 0.00871582, 0.0146783, 0.161461, 9.86137, 0.762939, -8.49915, 0.823975, 26.2813, 91096.7
7293, 0.00246094, 0.00953613, 0.0255322, 0.0100488, 0.393868, 0.0978554, 9.3036, -0.137329, -5.41687, 0.457764, 26.2805, 91097
7303, 0.00246094, 0.0070752, 0.0271729, 0.0100488, 0.660524, -0.0269102, 8.86325, -1.35803, 3.40271, -0.411987, 26.2792, 91096.7
7323, -0.000820312, 0.00625488, 0.0251221, 0.0100488, -0.31803, -0.136998, 10.1452, -2.36511, 3.32642, -1.20544, 26.2786, 91096.8
7333, 0, 0.00625488, 0.0251221, 0.00871582, -0.5749, 0.0758379, 10.4656, 0.473022, -4.83704, -1.40381, 26.271, 91097
7343, 0.000820312, 0.0070752, 0.0267627, 0.00912598, -0.384082, 0.234853, 10.1182, 0.900268, -6.82068, -0.869751, 26.2886, 91096.2
7353, -0.000410156, 0.00369141, 0.0263525, 0.00912598, -0.0269102, 0.151676, 9.78309, 0.427246, -4.36401, 0.152588, 26.2782, 91096.4
7363, -0.000410156, 0.00369141, 0.0255322, 0.00830566, 0.0782843, 0.139444, 9.68279, 0.930786, -1.37329, -0.335693, 26.2845, 91097.5
7373, 0.00164062, 0.00748535, 0.0255322, 0.0100488, 0.178586, 0.139444, 9.52622, -0.320435, 0.732422, -0.213623, 26.2831, 91096.5
7383, 0.000820312, 0.00666504, 0.0251221, 0.00912598, 0.198157, 0.0782843, 9.61429, -1.0376, 2.71606, -0.640869, 26.2724, 91096.8
7393, 0, 0.00625488, 0.0255322, 0.00830566, 0.0709451, 0.110087, 9.84425, -0.900268, 3.67737, -0.854492, 26.271, 91096.8
7413, 0.00123047, 0.00953613, 0.0233789, 0.00912598, -0.200604, 0.0195711, 9.93721, -0.38147, 0.244141, -0.930786, 26.2743, 91096.7
7423, 0.00123047, 0.0070752, 0.0233789, 0.0070752, -0.188372, 0.0146783, 9.86871, -0.289917, -1.4801, -0.717163, 26.271, 91096.7
7433, 0.00123047, 0.0070752, 0.027583, 0.010459, -0.0269102, 0.00244638, 9.71459, -0.335693, -0.976562, -0.595093, 26.275, 91096.4
7443, 0.00164062, 0.00666504, 0.027583, 0.0070752, -0.107641, 0.0905162, 9.85893, -0.350952, -1.32751, -0.12207, 26.2787, 91097.1
7453, 0.000410156, 0.00666504, 0.0263525, 0.0120996, 0.122319, 0.200604, 9.7415, -0.198364, -0.671387, -0.183105, 26.2732, 91096.6
7463, 0.00328125, 0.00830566, 0.0255322, 0.0120996, -0.031803, 0.166354, 9.86871, -0.320435, -0.656128, -0.50354, 26.2861, 91097.1
7473, 0.00328125, 0.00830566, 0.0255322, 0.0108691, 0.0856234, 0.190818, 9.80755, -0.305176, 1.58691, -0.579834, 26.2755, 91096.2
7493, 0.00328125, 0.00789551, 0.0255322, 0.00871582, 0.0269102, 0.0122319, 9.74884, -1.00708, 3.76892, -1.08337, 26.2717, 91096.9
7503, 0.000820312, 0.00953613, 0.0255322, 0.010459, 0.0269102, -0.0293566, 9.76597, -0.518799, 3.69263, -1.40381, 26.2913, 91097.3
7513, 0.000820312, 0.0070752, 0.0271729, 0.010459, -0.110087, -0.00978554, 9.81979, -0.12207, 2.54822, -1.8158, 26.2714, 91097.2
7523, 0.000820312, 0.0070752, 0.0271729, 0.00912598, -0.217728, -0.00978554, 9.79777, -0.473022, 1.61743, -3.66211, 26.2784, 91096.5
7533, 0, 0.00543457, 0.0241992, 0.00830566, -0.381636, -0.178586, 9.90052, -0.320435, 2.53296, -4.47083, 26.2831, 91096.9
7543, 0.000820312, 0.00748535, 0.0251221, 0.00871582, 0.00733915, 0.17614, 9.77575, -0.0610352, 2.94495, -2.50244, 26.271, 91097.3
7553, 0.000820312, 0.00584473, 0.0271729, 0.00912598, 0.20305, 0.455027, 9.78554, -0.0762939, 3.02124, -1.35803, 26.2791, 91096.9
7563, 0.000410156, 0.00666504, 0.0267627, 0.00912598, 0.127212, 0.163908, 9.74395, -0.198364, 3.18909, -1.26648, 26.283, 91097.1
7583, 0.000410156, 0.00830566, 0.0267627, 0.0100488, -0.144337, 0.14189, 9.87605, -0.62561, 1.35803, -0.335693, 26.2742, 91096.1
7593, 0.00246094, 0.00625488, 0.0255322, 0.0108691, -0.347387, 0.00978554, 10.0669, -0.0610352, -2.56348, -0.152588, 26.2866, 91097.1
7603, 0, 0.00625488, 0.0251221, 0.010459, -0.403653, -0.0587132, 10.0864, 0.0152588, -4.86755, 0.0152588, 26.2751, 91096.9
7613, 0.00369141, 0.00584473, 0.0271729, 0.010459, 0.00244638, 0.00489277, 9.79532, -0.259399, -3.50952, -0.244141, 26.2838, 91096.4
7623, 0.00287109, 0.00584473, 0.0241992, 0.00625488, 0.132105, 0.0244638, 9.6779, 0.183105, -1.06812, -0.701904, 26.2805, 91096.5
7633, 0.00287109, 0.00871582, 0.0241992, 0.010459, 0.0171247, 0.0758379, 9.64609, 0.274658, 0.228882, -0.38147, 26.2843, 91096.3
7643, 0.00205078, 0.00625488, 0.0233789, 0.00871582, 0.0220175, 0.308244, 9.78309, -0.366211, 1.43433, -0.396728, 26.2766, 91096.6
7683, 0.00410156, 0.00625488, 0.0267627, 0.00953613, 0.330262, 0.11498, 9.33785, 0.289917, -5.08118, -0.152588, 26.2822, 91097
7693, -0.00123047, 0.00502441, 0.0263525, 0.0100488, -0.163908, -0.0464813, 9.98369, -0.137329, -3.95203, 0.167847, 26.2881, 91096.6
7703, 0.00287109, 0.00789551, 0.0251221, 0.00912598, 0.105195, 0.122319, 9.63386, -0.305176, -1.84631, 0.0457764, 26.2793, 91096.8
7713, 0.00123047, 0.0070752, 0.0279932, 0.010459, -0.0415885, 0.0905162, 9.69257, -0.213623, -1.57166, 0.106812, 26.2814, 91096.6
7723, 0.00205078, 0.0070752, 0.0255322, 0.010459, -0.00978554, 0.11498, 9.78309, -0.228882, -0.38147, -0.183105, 26.2857, 91096.5
7733, 0.00205078, 0.0070752, 0.0255322, 0.0116895, 0.0489277, 0.0831771, 9.78554, -0.0457764, 0.335693, -0.442505, 26.2838, 91096.5
7743, 0.000820312, 0.0070752, 0.0259424, 0.0100488, 0.00733915, 0.100302, 9.82468, -0.0457764, -0.0610352, -0.152588, 26.2787, 91096.6
7753, 0.00123047, 0.00953613, 0.0259424, 0.00830566, -0.0807307, 0.0831771, 9.86627, -0.152588, -1.15967, -0.0305176, 26.2822, 91097
7773, -0.000410156, 0.00666504, 0.0271729, 0.00871582, -0.0293566, 0.0660524, 9.86382, -0.213623, -2.10571, 0.244141, 26.2881, 91096.8
7783, 0.00287109, 0.00666504, 0.0251221, 0.010459, -0.124766, 0.031803, 9.76107, -0.228882, -2.47192, 0.228882, 26.2787, 91097
7793, 0.00287109, 0.00369141, 0.0251221, 0.0100488, -0.00489277, 0.0415885, 9.72438, 0.183105, -1.00708, -0.0610352, 26.2772, 91097
7803, 0.00328125, 0.00666504, 0.0237891, 0.00748535, 0.0611596, 0.0146783, 9.72682, -0.0915527, -0.0305176, -0.137329, 26.2818, 91096
7813, 0.00287109, 0.00666504, 0.0259424, 0.00830566, 0.0660524, 0.117426, 9.77575, -0.335693, 1.49536, -0.244141, 26.2869, 91096.4
7823, 0.00164062, 0.00789551, 0.0259424, 0.00830566, 0.0880698, 0.134551, 9.9152, -0.228882, 1.23596, -0.50354, 26.2874, 91096.1
7833, 0.000820312, 0.00789551, 0.0271729, 0.00871582, -0.122319, 0.181032, 9.90541, -0.396728, -0.534058, -0.0610352, 26.2868, 91096.8
7843, 0.000820312, 0.00451172, 0.0271729, 0.00871582, -0.132105, 0.166354, 9.86871, -0.183105, -1.37329, 0.167847, 26.2901, 91097
7863, 0.00287109, 0.00625488, 0.0241992, 0.00953613, 0.322923, 0.139444, 9.94211, -0.213623, 0.549316, -0.823975, 26.2948, 91096.7
7873, 0.00164062, 0.00789551, 0.0259424, 0.00953613, -0.14189, -0.0440349, 9.50665, -0.335693, 2.41089, -0.640869, 26.2783, 91097
7883, 0.00328125, 0.00789551, 0.027583, 0.0116895, 0.107641, -0.0415885, 9.80511, -0.549316, 5.87463, -1.28174, 26.2878, 91096.6
7893, 0.00328125, 0.00748535, 0.027583, 0.010459, -0.0244638, 0.0831771, 10.0057, 0.0762939, 4.24194, -0.473022, 26.2802, 91097
7903, 0.00287109, 0.00953613, 0.0263525, 0.00748535, -0.136998, 0.410993, 10.1182, -0.335693, 0.305176, 0.183105, 26.2839, 91096.2
7913, 0.00164062, 0.0070752, 0.0259424, 0.00666504, -0.440349, 0.0684988, 9.92498, -0.427246, -2.89917, 0.259399, 26.2905, 91096.6
7923, 0.00123047, 0.00789551, 0.0251221, 0.00789551, -0.107641, -0.0391421, 9.66322, 0.335693, -3.67737, 0.686645, 26.2899, 91096.3
7943, 0.00205078, 0.00625488, 0.0247119, 0.00789551, 0.0660524, 0.183479, 9.50665, 0.259399, 2.38037, -0.228882, 26.2897, 91097
7953, 0.000820312, 0.0070752, 0.0251221, 0.0100488, 0.34494, 0.183479, 9.947, -0.289917, 4.45557, -0.610352, 26.2889, 91096.9
7963, 0.00164062, 0.00666504, 0.0259424, 0.0100488, -0.288673, 0.269102, 9.8467, -0.747681, 2.59399, -0.427246, 26.2807, 91096.3
7973, 0, 0.00789551, 0.0267627, 0.0100488, 0.00978554, 0.17614, 9.83202, -0.0305176, 2.91443, -0.427246, 26.2856, 91097
7983, 0.000820312, 0.00830566, 0.0251221, 0.0100488, 0.00244638, 0.0538205, 9.94211, -0.671387, 1.32751, -0.228882, 26.2876, 91096.9
7993, 0.00123047, 0.00830566, 0.027583, 0.0100488, -0.234853, 0.00244638, 9.86382, -0.534058, 0.0152588, -0.335693, 26.2829, 91096.7
8003, 0.00123047, 0.00584473, 0.027583, 0.00953613, -0.0269102, -0.0293566, 9.8467, 0.0610352, -0.534058, -0.0762939, 26.2816, 91097
8013, 0.00246094, 0.00912598, 0.027583, 0.00953613, -0.149229, 0.0831771, 9.78798, 0.0915527, -1.34277, 0.595093, 26.2705, 91096.4
8033, 0.00164062, 0.0070752, 0.0251221, 0.0070752, -0.0905162, 0.063606, 9.83202, -0.0305176, -0.961304, 0.0610352, 26.2792, 91097
8043, 0.000820312, 0.0070752, 0.0271729, 0.00748535, -0.0171247, 0.0831771, 9.82468, 0.106812, -1.35803, 0, 26.2866, 91097.2
8053, 0.000820312, 0.0070752, 0.0271729, 0.00912598, -0.0440349, 0.0758379, 9.67545, 0.0305176, -0.762939, -0.0915527, 26.2917, 91096.3
8063, 0.00287109, 0.00830566, 0.0263525, 0.00830566, 0.0978554, 0.112534, 9.74639, -0.0457764, 1.35803, -0.473022, 26.2934, 91097.2
8073, 0.00287109, 0.00625488, 0.0259424, 0.010459, 0.00489277, 0.119873, 9.94211, -0.228882, 1.14441, -0.228882, 26.2822, 91096.6
8083, 0.00328125, 0.00789551, 0.027583, 0.010459, -0.210389, 0.0464813, 9.90052, -0.259399, -1.20544, 0.183105, 26.2759, 91097
8093, 0.00287109, 0.00789551, 0.0247119, 0.00789551, -0.0978554, 0.0366958, 9.73906, -0.0152588, -1.0376, 0.0762939, 26.2853, 91096.6
8113, 0.00205078, 0.0070752, 0.027583, 0.0100488, 0.00489277, 0.063606, 9.85648, 0.0152588, -0.0610352, 0.0915527, 26.2789, 91097.1
8123, 0, 0.00830566, 0.0263525, 0.00912598, -0.119873, 0.119873, 9.98125, 0.213623, -2.22778, 0.335693, 26.2874, 91096.7
8133, 0.00164062, 0.00748535, 0.0247119, 0.0100488, -0.281334, 0.181032, 9.90541, 0.289917, -3.40271, 0.274658, 26.2867, 91096.6
8143, 0.00410156, 0.00830566, 0.0263525, 0.0100488, -0.063606, -0.063606, 9.60695, 0.396728, 0.274658, 0.335693, 26.2814, 91096.9
8153, 0.00410156, 0.00830566, 0.0263525, 0.0108691, 0.190818, 0.200604, 9.5409, 0.259399, 0.0457764, -0.396728, 26.2793, 91096.7
8163, 0.000820312, 0.00584473, 0.0247119, 0.0100488, 0.146783, 0.151676, 9.58249, -1.00708, 3.05176, -0.564575, 26.2937, 91096.9
8173, 0.00246094, 0.00789551, 0.0271729, 0.00912598, -0.200604, -0.00244638, 9.92253, -0.976562, 3.67737, -0.50354, 26.2798, 91096.6
8183, 0.00451172, 0.00451172, 0.0279932, 0.00789551, -0.063606, -0.0391421, 9.84914, -0.671387, 1.63269, -0.137329, 26.284, 91097.1
8203, 0.000410156, 0.00543457, 0.0255322, 0.0070752, -0.0978554, 0.0146783, 9.78309, -0.213623, 0.213623, -0.0457764, 26.28, 91097.2
8213, 0.000410156, 0.00625488, 0.0255322, 0.010459, 0.0171247, 0.00244638, 9.75618, 0.0305176, 0.946045, -0.305176, 26.2952, 91097.2
8223, 0.00451172, 0.00666504, 0.0288135, 0.010459, 0.0220175, 0.119873, 9.7097, 0.0610352, 2.41089, -0.717163, 26.2773, 91097.4
8233, 0.00164062, 0.00543457, 0.0263525, 0.00871582, -0.0807307, 0.100302, 9.79777, -0.106812, 2.62451, -0.549316, 26.2875, 91096.7
8243, 0.00164062, 0.00830566, 0.0251221, 0.00871582, 0.0538205, 0.105195, 9.79288, -0.38147, 2.74658, -0.610352, 26.286, 91097.2
8253, 0.00287109, 0.00830566, 0.0247119, 0.00953613, -0.156569, 0.181032, 9.90786, -0.137329, 2.7771, -0.778198, 26.2868, 91096.1
8263, 0.00287109, 0.00912598, 0.0247119, 0.0116895, -0.00489277, 0.132105, 9.78798, -0.289917, 2.18201, -0.564575, 26.2884, 91096.9
8283, 0.00164062, 0.0070752, 0.027583, 0.010459, -0.273995, 0.0978554, 10.0082, -0.244141, -1.0376, 0.350952, 26.2785, 91097
8293, 0.000820312, 0.0070752, 0.0263525, 0.010459, 0.0562668, 0.0244638, 9.75618, 0.137329, -1.02234, -0.106812, 26.2954, 91096.4
8303, 0.000410156, 0.0070752, 0.0255322, 0.00912598, -0.0562668, 0.0905162, 9.69991, -0.106812, 0.488281, -0.396728, 26.2854, 91096.4
8313, 0.000410156, 0.00830566, 0.0255322, 0.00953613, 0.0587132, 0.0342494, 9.7097, -0.854492, 0.88501, -0.274658, 26.282, 91096
8323, 0.000820312, 0.00625488, 0.0251221, 0.010459, -0.0489277, 0.0244638, 9.80755, -0.442505, 2.80762, -0.595093, 26.2997, 91096.5
8333, 0.00164062, 0.00543457, 0.027583, 0.00871582, -0.237299, 0.0807307, 9.94455, -0.0152588, 0.717163, -0.167847, 26.2735, 91096.8
8343, 0.000410156, 0.00666504, 0.0255322, 0.00912598, -0.0513741, 0.0782843, 9.80021, -0.152588, 0.289917, -0.0457764, 26.2816, 91096.5
8353, 0.00205078, 0.00912598, 0.0247119, 0.00912598, -0.0807307, 0.0538205, 9.78309, 0.0762939, 0.656128, 0, 26.2841, 91096.1
8373, 0.000820312, 0.00666504, 0.0267627, 0.00748535, -0.095409, 0.0684988, 9.85159, -0.259399, -1.28174, 0.289917, 26.2811, 91096.4
8383, 0.000410156, 0.00789551, 0.0237891, 0.00912598, -0.0562668, 0.0611596, 9.77086, 0.0915527, -1.32751, -0.0610352, 26.2924, 91096.8
8393, -0.00205078, 0.00871582, 0.0267627, 0.00871582, -0.136998, 0.144337, 9.8418, -0.0915527, -1.7395, 0.0762939, 26.2721, 91096
8403, 0.00123047, 0.00789551, 0.0263525, 0.00871582, -0.0538205, 0.124766, 9.84425, -0.198364, -1.98364, 0.152588, 26.2772, 91096.9
8413, 0.00123047, 0.00789551, 0.0241992, 0.0100488, 0.00244638, 0.0929626, 9.76597, 0.0762939, -1.32751, -0.0457764, 26.2862, 91096.4
8423, 0.00123047, 0.00666504, 0.0241992, 0.010459, -0.0195711, 0.102748, 9.7415, 0, -0.0762939, -0.198364, 26.2762, 91096.3
8433, 0.00246094, 0.00502441, 0.0263525, 0.00789551, 0.163908, 0.124766, 9.56781, -0.488281, 1.41907, -0.198364, 26.2851, 91096.7
8473, 0.00123047, 0.00871582, 0.0284033, 0.00830566, -0.207943, -0.110087, 9.88584, 0.152588, -3.12805, 0.701904, 26.2929, 91096.4
8483, 0.00164062, 0.0070752, 0.0267627, 0.00953613, -0.340047, 0.0415885, 9.95923, 0.50354, -5.53894, 0.976562, 26.2884, 91096.5
8493, 0.000410156, 0.00748535, 0.0263525, 0.0100488, -0.251978, 0.222621, 10.0326, 0.686645, -8.19397, 1.80054, 26.2949, 91096.1
8503, 0.00287109, 0.00830566, 0.0255322, 0.0100488, -0.156569, 0.366958, 10.0375, 0.900268, -10.1166, 2.31934, 26.287, 91097.3
8513, 0.000820312, 0.00830566, 0.0247119, 0.00748535, 0.207943, 0.283781, 9.75863, 0.335693, -8.20923, 1.96838, 26.2919, 91096.5
8523, 0.000820312, 0.0070752, 0.0247119, 0.00748535, 0.447688, 0.117426, 9.59717, -0.991821, -1.63269, 0.62561, 26.2842, 91096.5
8533, 0.00328125, 0.00748535, 0.0221484, 0.0100488, 1.02014, -0.0244638, 8.91707, 0.701904, 7.78198, 0.0305176, 26.2936, 91096.7
8543, 0.00205078, 0.00748535, 0.0247119, 0.0070752, 0.560222, -0.132105, 8.89016, -0.152588, 16.7847, -0.686645, 26.2823, 91096.4
8563, 0.000820312, 0.00748535, 0.0251221, 0.00871582, -1.12044, -0.22996, 10.4069, -2.42615, 4.13513, 1.35803, 26.2867, 91096
8573, 0.000820312, 0.00789551, 0.0251221, 0.00871582, -1.00302, -0.0782843, 10.561, -0.335693, -7.64465, 2.12097, 26.2907, 91096.8
8583, 0.00123047, 0.00287109, 0.0225586, 0.010459, -0.579793, 0.183479, 10.2137, 1.11389, -15.976, 2.30408, 26.2876, 91097
8593, 0, 0.00912598, 0.0237891, 0.00953613, 0.247085, 0.388975, 9.9103, 0.595093, -15.3503, 2.28882, 26.2899, 91096.1
8603, 0.000820312, 0.00748535, 0.0251221, 0.00789551, 0.403653, 0.190818, 8.51097, -0.152588, -11.2152, 1.87683, 26.2894, 91096.3
8613, 0.00205078, 0.00871582, 0.0263525, 0.00789551, 0.031803, 0.234853, 9.72438, -0.12207, -0.915527, 1.20544, 26.2958, 91096.1
8623, 0.00123047, 0.00871582, 0.027583, 0.00871582, 0.565115, -0.0758379, 9.45283, -0.747681, 5.64575, 0.869751, 26.2976, 91096.7
8643, 0.00246094, 0.00871582, 0.0255322, 0.0116895, -0.462367, -0.122319, 9.99348, -0.137329, 3.25012, 0.106812, 26.2921, 91097.2
8653, 0.000820312, 0.00666504, 0.0259424, 0.0100488, -0.349833, 0.0415885, 10.1207, 0.137329, -1.02234, 0.717163, 26.2876, 91097.3
8663, 0.00287109, 0.00830566, 0.0267627, 0.0100488, -0.225067, 0.0587132, 10.0179, -0.137329, -3.26538, 0.549316, 26.3031, 91096.7
8673, 0.000410156, 0.00830566, 0.0267627, 0.00830566, -0.0269102, 0.181032, 9.88829, 0.50354, -5.23376, 0.778198, 26.2923, 91096.9
8683, 0.000410156, 0.00666504, 0.0267627, 0.010459, 0.205496, 0.269102, 9.65343, 0.62561, -4.48608, 0.839233, 26.2946, 91096.6
8693, 0, 0.00830566, 0.0241992, 0.0108691, 0.29112, 0.327815, 9.55802, 0.106812, -1.23596, 0.686645, 26.2889, 91095.9
8703, 0.00164062, 0.00953613, 0.0225586, 0.00871582, 0.0807307, 0.247085, 9.68768, -0.488281, 2.36511, 0.793457, 26.2867, 91096
8713, 0.000820312, 0.00789551, 0.0247119, 0.00871582, -0.127212, 0.154122, 9.87605, -0.747681, 2.89917, 0.823975, 26.2968, 91096.9
8733, 0.00287109, 0.0100488, 0.0241992, 0.00912598, -0.251978, 0.215282, 9.93477, -0.534058, -0.656128, 3.66211, 26.292, 91096.7
8743, 0.000820312, 0.00789551, 0.0251221, 0.00871582, -0.0293566, 0.124766, 9.81245, -0.289917, -3.35693, 3.40271, 26.2976, 91096.9
8753, 0.00328125, 0.00543457, 0.0259424, 0.00830566, 0, 0.450135, 9.73416, 0.244141, -3.09753, 4.31824, 26.2998, 91096.6
8763, 0.000820312, 0.0070752, 0.0233789, 0.00830566, 0.0342494, 0.249531, 9.71948, 0.411987, -2.04468, 5.50842, 26.3, 91096.9
8773, 0.00287109, 0.0070752, 0.0255322, 0.00830566, 0.0122319, 0.0587132, 9.77575, 0.213623, -0.839233, 5.59998, 26.2923, 91096.8
8783, 0, 0.00871582, 0.0255322, 0.00871582, 0.0733915, -0.0293566, 9.72682, 0.0915527, 0.564575, 4.86755, 26.2983, 91097.4
8793, 0, 0.00748535, 0.0217383, 0.00625488, 0.0366958, -0.100302, 9.80266, 0.0457764, 1.96838, 3.64685, 26.292, 91096.7
8813, 0.00123047, 0.0070752, 0.0259424, 0.0070752, -0.0269102, -0.156569, 9.89318, -0.534058, 1.46484, 1.44958, 26.2903, 91096.9
8823, 0.00205078, 0.00748535, 0.0251221, 0.0070752, -0.0293566, -0.0342494, 9.80511, -0.488281, 0.38147, 0.961304, 26.2938, 91096.6
8833, 0.00287109, 0.00748535, 0.0233789, 0.00912598, -0.0513741, 0.119873, 9.80266, -0.183105, -0.152588, 1.08337, 26.2999, 91096.8
8843, 0.00287109, 0.00625488, 0.0233789, 0.00953613, -0.110087, 0.124766, 9.78798, -0.167847, -0.198364, 1.70898, 26.3021, 91096.3
8853, 0.00164062, 0.00748535, 0.0284033, 0.00871582, -0.0269102, 0.159015, 9.72682, -0.12207, 0.396728, 1.96838, 26.3061, 91097
8863, 0.00287109, 0.00871582, 0.0241992, 0.00830566, -0.0195711, 0.132105, 9.79288, 0.0457764, 1.34277, 2.30408, 26.2955, 91096
8873, 0.000820312, 0.00666504, 0.0241992, 0.00830566, 0.0391421, -0.00489277, 9.77575, 0.0305176, 1.80054, 2.38037, 26.2928, 91096.8
8883, 0, 0.00666504, 0.0251221, 0.0100488, 0.0220175, -0.0538205, 9.80511, -0.137329, 1.86157, 1.66321, 26.2821, 91097.1
8903, 0.00123047, 0.00625488, 0.0237891, 0.0112793, -0.0366958, -0.0440349, 9.84425, -0.183105, 0.839233, 0.732422, 26.2911, 91096.7
8913, 0.00164062, 0.00625488, 0.0267627, 0.00953613, -0.0660524, -0.00733915, 9.83202, -0.335693, 0.350952, 0.12207, 26.2896, 91096.5
8923, 0.00328125, 0.00625488, 0.0267627, 0.00953613, -0.0831771, 0.0929626, 9.82712, -0.442505, 0.0152588, 0.167847, 26.2953, 91096.6
8933, 0.00246094, 0.00625488, 0.0259424, 0.0108691, -0.0293566, 0.0880698, 9.7415, -0.427246, 0.137329, 0.244141, 26.3017, 91096.7
8943, 0.00246094, 0.00912598, 0.0259424, 0.0108691, -0.0293566, 0.129658, 9.76352, -0.473022, 1.02234, 0.366211, 26.2976, 91096.7
8953, 0.00287109, 0.00502441, 0.0233789, 0.00912598, 0, 0.146783, 9.75863, -0.396728, 1.51062, 0.701904, 26.2868, 91096.7
8963, 0.00287109, 0.00748535, 0.0241992, 0.00912598, -0.031803, 0.0856234, 9.79777, -0.167847, 1.57166, 1.0376, 26.2905, 91096.1
8983, 0.00287109, 0.00625488, 0.027583, 0.00953613, -0.063606, -0.0195711, 9.82712, -0.0915527, 1.31226, 0.701904, 26.2986, 91096.4
8993, 0.00287109, 0.00830566, 0.027583, 0.0108691, -0.0807307, 0.00733915, 9.83202, -0.12207, 0.854492, 0.518799, 26.2909, 91096.8
9003, 0.00287109, 0.0070752, 0.0259424, 0.00912598, -0.0880698, 0.107641, 9.81734, 0.0610352, 0.717163, 0.320435, 26.292, 91096.6
9013, 0.00369141, 0.00912598, 0.0255322, 0.0070752, -0.0929626, 0.107641, 9.86871, -0.167847, 0.38147, 0.350952, 26.2954, 91096.2
9023, -0.000820312, 0.00584473, 0.0241992, 0.00912598, -0.0611596, 0.0391421, 9.83202, -0.198364, -0.0610352, 0.427246, 26.2924, 91096.2
9033, 0.00205078, 0.00666504, 0.0233789, 0.00912598, -0.0538205, 0.0122319, 9.80021, -0.0305176, -0.259399, 0.366211, 26.2958, 91096.5
9043, 0.000820312, 0.00666504, 0.0255322, 0.0116895, -0.0391421, -0.00489277, 9.79777, 0.12207, -0.198364, 0.259399, 26.2949, 91096.9
9053, 0.000820312, 0.00830566, 0.0255322, 0.00953613, -0.0538205, 0.0660524, 9.76597, 0.38147, 0.167847, 0.274658, 26.2869, 91096.4
9073, -0.000820312, 0.00789551, 0.0263525, 0.00789551, -0.117426, 0.112534, 9.88829, 0.289917, -0.534058, 0.350952, 26.2878, 91096.4
9083, 0.000820312, 0.00543457, 0.0271729, 0.00789551, -0.063606, 0.151676, 9.85159, 0.0915527, -0.915527, 0.411987, 26.2905, 91096.4
9093, 0.000410156, 0.00543457, 0.0267627, 0.00871582, -0.0513741, 0.100302, 9.86137, -0.0152588, -1.14441, 0.50354, 26.2906, 91096.8
9103, 0.000410156, 0.00543457, 0.0267627, 0.010459, -0.0415885, 0.0929626, 9.86871, 0.0915527, -1.66321, 0.564575, 26.2923, 91096.9
9113, 0, 0.00584473, 0.0271729, 0.00789551, -0.0856234, 0.102748, 9.85893, -0.0152588, -1.95312, 0.549316, 26.2894, 91096.5
9123, 0, 0.00625488, 0.0263525, 0.00912598, -0.0195711, 0.0538205, 9.71214, 0.259399, -1.9989, 0.732422, 26.3026, 91096.8
9133, 0.00164062, 0.00625488, 0.0233789, 0.00912598, -0.110087, 0.0366958, 9.84425, 0.335693, -2.13623, 0.747681, 26.2939, 91096.7
9153, 0.000410156, 0.00625488, 0.0263525, 0.00953613, -0.0513741, 0.00733915, 9.80755, 0.991821, -3.00598, 0.839233, 26.3005, 91096
9163, 0.00369141, 0.00871582, 0.0241992, 0.010459, -0.0562668, 0.0660524, 9.87116, 1.4801, -3.41797, 0.778198, 26.2893, 91097
9173, 0.00123047, 0.00789551, 0.0241992, 0.00830566, -0.107641, 0.127212, 9.92498, 1.64795, -4.71497, 0.808716, 26.2894, 91096.8
9183, 0.00287109, 0.00830566, 0.0255322, 0.00789551, -0.14189, 0.168801, 9.97391, 1.51062, -6.34766, 0.869751, 26.3013, 91095.9
9193, 0.00451172, 0.00830566, 0.0251221, 0.00789551, -0.0342494, 0.234853, 9.88339, 0.839233, -6.86645, 0.762939, 26.3022, 91096.1
9203, -0.000820312, 0.00625488, 0.0251221, 0.0070752, 0.313137, 0.107641, 9.46017, 0.671387, -5.34058, 0.686645, 26.2953, 91096.7
9213, -0.000820312, 0.00543457, 0.0247119, 0.00912598, 0.599364, 0.110087, 8.78986, 0.0152588, -0.274658, 0.0152588, 26.3038, 91096.6
9223, 0, 0.0070752, 0.0255322, 0.0100488, -0.166354, 0.0293566, 10.1965, -1.25122, 4.57764, 0.488281, 26.2965, 91096.4
9273, 0.00328125, 0.00625488, 0.0229687, 0.010459, -0.320476, -0.0171247, 9.93477, -0.289917, 0.350952, -0.0762939, 26.2965, 91096.8
9283, 0.000410156, 0.00748535, 0.0237891, 0.00871582, 0.0269102, -0.031803, 9.83202, 0.305176, 0.930786, 0.137329, 26.2963, 91096.2
9293, 0.00205078, 0.00830566, 0.0237891, 0.00871582, -0.31803, 0.154122, 9.80511, 0.244141, -0.762939, -0.12207, 26.2836, 91096
9303, 0.00205078, 0.00830566, 0.0251221, 0.00912598, -0.0122319, 0.464813, 10.0497, -0.0457764, -0.0610352, -0.0915527, 26.2979, 91097
9313, 0.00205078, 0.00625488, 0.0251221, 0.00912598, -0.210389, 0, 9.52133, -0.0457764, -0.564575, 0.0915527, 26.304, 91096.5
9323, 0.00164062, 0.00830566, 0.0237891, 0.0100488, -0.266656, 0.269102, 10.1745, 0.106812, 1.05286, -0.228882, 26.2933, 91096.1
9333, 0.000410156, 0.00543457, 0.0225586, 0.010459, -0.0440349, 0.0587132, 9.61674, -0.167847, -2.02942, 0.167847, 26.3055, 91096.1
9343, 0.00164062, 0.00748535, 0.0247119, 0.010459, -0.0171247, 0.00244638, 9.58493, 0.198364, 1.5564, -0.0457764, 26.3025, 91096.5
9363, 0.000410156, 0.00830566, 0.0241992, 0.0112793, 0.0244638, 0.0660524, 9.59717, -0.213623, 0.732422, 0.0762939, 26.2988, 91096.9
9373, 0, 0.00666504, 0.0247119, 0.0112793, 0.0269102, 0.178586, 9.84914, 0.0152588, 2.41089, 0.0152588, 26.2887, 91096.5
9383, 0.000820312, 0.00543457, 0.0259424, 0.00912598, -0.232406, 0.156569, 10.0913, -0.366211, 0.488281, 0.0610352, 26.2905, 91096.4
9393, 0.00123047, 0.00830566, 0.0255322, 0.00830566, 0.0660524, 0.0440349, 9.52867, -0.152588, 0.488281, -0.0152588, 26.2873, 91097
9403, 0.00123047, 0.00830566, 0.0263525, 0.00830566, -0.151676, 0.139444, 10.062, -0.152588, 1.15967, 0.0610352, 26.2991, 91096.7
9413, 0.000410156, 0.0100488, 0.0263525, 0.010459, -0.0415885, 0.063606, 9.79532, -0.274658, -0.549316, 0.0152588, 26.3082, 91096.1
9423, 0.000410156, 0.0070752, 0.0251221, 0.00871582, 0.0269102, 0.100302, 9.7782, -0.0305176, -0.0610352, 0.0152588, 26.3076, 91096.5
9443, 0.000410156, 0.0070752, 0.0263525, 0.00871582, 0.0587132, 0.0538205, 9.67545, -0.0915527, 0.106812, 0.0305176, 26.3002, 91096.1
9453, 0.00123047, 0.0070752, 0.0259424, 0.00871582, 0.0538205, 0.095409, 9.70236, -0.198364, 1.90735, 0.12207, 26.3098, 91096.1
9463, 0.00164062, 0.00830566, 0.0259424, 0.00625488, -0.198157, 0.0587132, 9.95189, -0.228882, 1.8158, 0.0457764, 26.2874, 91096.4
9473, 0.00164062, 0.00666504, 0.0259424, 0.0070752, -0.112534, 0.102748, 9.90296, -0.244141, 0.686645, 0, 26.3109, 91097
9483, 0.00287109, 0.00543457, 0.0251221, 0.0125098, -0.0709451, 0.0905162, 9.83202, -0.152588, 0.12207, 0.0762939, 26.2916, 91096
9493, 0.00410156, 0.00830566, 0.027583, 0.00789551, -0.0122319, 0.124766, 9.81, -0.12207, 0.106812, 0.12207, 26.3016, 91096.3
9503, -0.000410156, 0.0070752, 0.0284033, 0.00789551, 0.0293566, 0.14189, 9.74884, -0.274658, 0.686645, 0.0152588, 26.3033, 91096.3
9513, 0.00328125, 0.0070752, 0.0267627, 0.00748535, 0.0978554, 0.107641, 9.65588, -0.396728, 2.24304, 0.0610352, 26.2863, 91096.2
9533, 0.00410156, 0.00912598, 0.027583, 0.00748535, -0.0513741, 0.0978554, 9.80266, -0.259399, 0.595093, 0.106812, 26.2914, 91096.4
9543, 0.00123047, 0.00666504, 0.0247119, 0.0070752, -0.0195711, 0.0587132, 9.72927, -0.442505, 0.839233, 0.137329, 26.2944, 91096.2
9553, 0.000820312, 0.00502441, 0.0233789, 0.0070752, -0.112534, 0.0660524, 9.86382, -0.38147, 1.7395, 0.0457764, 26.2883, 91096.2
9563, 0.00287109, 0.00502441, 0.0292236, 0.00912598, -0.0587132, 0.0905162, 9.81, -0.305176, 0.534058, 0.0152588, 26.3004, 91096.8
9573, 0.00123047, 0.00830566, 0.0292236, 0.00871582, -0.0391421, 0.0684988, 9.81489, -0.320435, 1.17493, 0.0610352, 26.2909, 91096.4
9583, 0.00123047, 0.0070752, 0.0263525, 0.00625488, -0.0733915, 0.0758379, 9.8418, -0.305176, 0.50354, 0.0305176, 26.3111, 91096.2
9593, 0.00164062, 0.00912598, 0.0297363, 0.010459, -0.0244638, 0.119873, 9.76597, -0.259399, 0.473022, 0.106812, 26.2975, 91096.4
9613, 0.00164062, 0.00584473, 0.0259424, 0.00748535, -0.0611596, 0.0905162, 9.77086, -0.183105, -0.610352, 0.0610352, 26.2942, 91096.3
9623, 0, 0.00748535, 0.0259424, 0.00912598, -0.100302, 0.0440349, 9.83202, -0.106812, 0.488281, 0.0915527, 26.2998, 91096.2
9633, 0, 0.00584473, 0.027583, 0.00871582, -0.0929626, 0.0807307, 9.81, -0.213623, -0.579834, 0.0305176, 26.3021, 91096.3
9643, -0.00164062, 0.00748535, 0.0255322, 0.00666504, -0.144337, 0.110087, 9.81979, -0.0457764, 0.50354, 0.0610352, 26.3123, 91095.5
9653, -0.000410156, 0.00502441, 0.0259424, 0.00830566, -0.0611596, 0.0684988, 9.85893, -0.0762939, -0.152588, 0.0152588, 26.3004, 91096.7
9663, 0.00164062, 0.00502441, 0.027583, 0.00830566, 0.102748, 0.0929626, 9.70236, -0.106812, -0.0915527, 0.106812, 26.297, 91097.1
9673, 0.00164062, 0.00830566, 0.0251221, 0.00953613, -0.132105, 0.0856234, 9.89073, -0.106812, -0.579834, 0.0610352, 26.2959, 91097
9683, 0.00164062, 0.00625488, 0.0251221, 0.00953613, -0.0122319, 0.0929626, 9.77086, -0.0610352, -0.610352, 0.0610352, 26.3014, 91096.4
9703, 0, 0.0100488, 0.0263525, 0.00666504, -0.0244638, 0.063606, 9.78064, 0.0305176, -0.930786, 0.0610352, 26.2993, 91096.5
9713, 0.00164062, 0.00410156, 0.0259424, 0.00666504, -0.063606, 0.0660524, 9.79043, -0.0915527, -1.20544, 0.0915527, 26.296, 91095.8
9723, 0.000820312, 0.00410156, 0.0297363, 0.0108691, 0.489277, 0.00244638, 9.15437, -0.778198, 4.66919, 0.0305176, 26.2959, 91096.2
9733, 0.000820312, 0.0070752, 0.0297363, 0.00871582, -0.966322, 0.0611596, 10.8913, -0.0610352, -0.442505, 0.0305176, 26.3041, 91095.8
9743, 0.00164062, 0.0070752, 0.0263525, 0.0120996, 0.787736, 0.0611596, 8.81188, -0.0610352, -2.01416, 0.0457764, 26.3069, 91096.3
9753, 0.00451172, 0.00748535, 0.0279932, 0.00912598, -0.719237, 0.0978554, 10.5757, -0.183105, 2.73132, -0.0152588, 26.308, 91096.7
9763, 0.00369141, 0.0100488, 0.0241992, 0.00912598, 0.305798, 0.0905162, 9.32562, -0.0762939, -3.05176, 0.0610352, 26.2942, 91096.6
9783, 0, 0.0070752, 0.0292236, 0.00871582, -0.00978554, 0.0709451, 9.74639, -0.0762939, -2.80762, 0.0610352, 26.2904, 91096.1
9793, 0, 0.00871582, 0.0284033, 0.0100488, -0.0195711, 0.0733915, 9.77086, -0.198364, 2.24304, 0.0152588, 26.2975, 91096.4
9803, 0.00328125, 0.00625488, 0.0255322, 0.0100488, -0.198157, 0.0782843, 9.95434, -0.0152588, -1.95312, 0.0457764, 26.2956, 91096.7
9813, 0.00123047, 0.00789551, 0.0259424, 0.0100488, 0.122319, 0.0660524, 9.60206, -0.12207, 1.00708, 0, 26.301, 91096
9823, 0.000820312, 0.00789551, 0.0259424, 0.00830566, -0.227514, 0.102748, 10.0302, 0.0152588, -0.915527, 0, 26.2993, 91097
9833, 0.00246094, 0.00543457, 0.0259424, 0.0100488, 0.136998, 0.105195, 9.57515, -0.0762939, 0.320435, 0.0457764, 26.2927, 91096.3
9843, 0.00246094, 0.00625488, 0.0297363, 0.010459, -0.278888, 0.110087, 10.062, -0.0610352, -0.106812, 0.0152588, 26.3012, 91095.8
9853, 0.00451172, 0.00625488, 0.0267627, 0.00830566, 0.107641, 0.105195, 9.63631, -0.106812, -0.244141, -0.0152588, 26.2956, 91096.4
9873, -0.000820312, 0.00625488, 0.0288135, 0.0070752, 0.0415885, 0.0807307, 9.68279, -0.167847, -0.717163, 0.0610352, 26.2927, 91096.6
9883, 0.00410156, 0.0112793, 0.0288135, 0.0108691, -0.144337, 0.0856234, 9.89807, -0.106812, 0.579834, -0.0152588, 26.2923, 91097
9893, 0.00410156, 0.00789551, 0.0288135, 0.00912598, -0.00489277, 0.0684988, 9.7415, -0.0762939, -0.762939, 0.0457764, 26.3011, 91097
9903, 0.00123047, 0.00789551, 0.0284033, 0.00912598, -0.0733915, 0.0684988, 9.84425, -0.0762939, 0.549316, 0.0152588, 26.3161, 91096.5
9913, 0.00123047, 0.00789551, 0.0255322, 0.00953613, -0.102748, 0.0415885, 9.79532, -0.0915527, -0.640869, 0.0152588, 26.2993, 91096.1
9923, 0.000820312, 0.00789551, 0.0271729, 0.00953613, -0.146783, -0.0464813, 9.76352, -0.137329, 0.411987, -0.106812, 26.3102, 91096.6
9933, 0.00287109, 0.00912598, 0.0279932, 0.010459, -0.210389, -0.0146783, 9.92743, 0.0610352, -0.50354, -0.12207, 26.3115, 91096.2
9953, 0.00123047, 0.00748535, 0.0297363, 0.00789551, -0.105195, 0.251978, 9.97635, 0.0457764, -0.137329, -0.0152588, 26.2944, 91096.7
9963, 0.00246094, 0.00830566, 0.0305566, 0.00789551, 0.200604, 0.325369, 9.72438, -0.137329, -0.656128, 0.167847, 26.3055, 91096
9973, 0.00164062, 0.00748535, 0.0305566, 0.00789551, 0.00244638, 0.207943, 9.86627, -0.350952, 0.671387, 0.152588, 26.3106, 91096.9
9983, 0.00123047, 0.00748535, 0.0267627, 0.00912598, 0, 0.0880698, 9.76107, -0.228882, -0.564575, -0.0610352, 26.2915, 91096.7
9993, 0.00205078, 0.00912598, 0.0267627, 0.0070752, -0.0929626, 0.0342494, 9.76841, -0.350952, 0.717163, -0.0305176, 26.3048, 91096.6
10003, 0.00205078, 0.0070752, 0.0297363, 0.00748535, -0.212835, -0.0513741, 9.8467, -0.259399, -0.198364, -0.0305176, 26.2992, 91096.8
10013, 0.00164062, 0.00543457, 0.0284033, 0.00830566, -0.151676, -0.112534, 9.73172, -0.152588, 0.228882, -0.0610352, 26.3011, 91096.4
10023, 0.00164062, 0.00543457, 0.0301465, 0.00830566, -0.20305, -0.031803, 9.89562, 0.0305176, -0.839233, 0.0762939, 26.2958, 91097
10063, 0.00205078, 0.00871582, 0.0305566, 0.010459, -0.276441, 0.237299, 10.0595, -0.0305176, 0.38147, -0.0457764, 26.2881, 91096.6
10073, 0.00205078, 0.0070752, 0.0309668, 0.00912598, 0.00244638, 0.242192, 9.74884, -0.183105, -0.12207, 0.0305176, 26.2945, 91096.7
10083, 0.000820312, 0.0070752, 0.0330176, 0.00912598, -0.300905, 0.136998, 9.99837, -0.305176, 0.320435, -0.0457764, 26.292, 91096.4
10093, 0.00123047, 0.00953613, 0.0305566, 0.0108691, -0.0489277, 0.0391421, 9.76597, -0.274658, -0.976562, 0, 26.3055, 91096.8
10103, 0.00123047, 0.00748535, 0.0305566, 0.0100488, 0.00244638, -0.0244638, 9.74639, -0.259399, 0.335693, 0, 26.2968, 91095.8
10113, 0.00246094, 0.00871582, 0.0317871, 0.0108691, 0.00244638, -0.0562668, 9.72682, -0.0915527, -0.488281, -0.0152588, 26.2898, 91096.1
10123, -0.000410156, 0.00748535, 0.0334277, 0.00912598, 0.0562668, 0.00244638, 9.71948, 0.0305176, 0.595093, 0, 26.2955, 91096.3
10143, 0.00123047, 0.00830566, 0.0321973, 0.0108691, -0.100302, 0.151676, 9.81489, 0, 0.259399, 0.0152588, 26.304, 91096.3
10153, 0.00123047, 0.00830566, 0.0321973, 0.0116895, -0.181032, 0.181032, 9.92009, -0.0152588, -0.335693, 0, 26.3088, 91096.6
10163, 0.000820312, 0.00748535, 0.034248, 0.0120996, -0.0489277, 0.146783, 9.79043, -0.0915527, -0.0762939, 0.0457764, 26.2885, 91096.6
10173, 0.00205078, 0.00830566, 0.0334277, 0.0120996, -0.0269102, 0.146783, 9.86137, -0.167847, -0.366211, -0.0305176, 26.296, 91097
10183, 0.00164062, 0.0100488, 0.0338379, 0.0120996, 0.063606, 0.0733915, 9.71214, -0.228882, 0, 0.0457764, 26.291, 91096.6
10193, 0.00328125, 0.0100488, 0.031377, 0.0150732, -0.0513741, 0.0464813, 9.82468, -0.244141, 0.12207, 0, 26.3013, 91096.7
10203, 0.00246094, 0.0070752, 0.031377, 0.0150732, -0.0782843, 0.00733915, 9.74884, -0.0610352, 0.0610352, -0.0152588, 26.2944, 91096.3
10213, 0.00246094, 0.00584473, 0.034248, 0.0137402, -0.190818, -0.00978554, 9.85159, -0.0305176, 0.274658, -0.0152588, 26.2958, 91096.5
10233, 0.00246094, 0.0070752, 0.0330176, 0.0141504, -0.105195, 0.110087, 9.83936, -0.0305176, -0.274658, 0, 26.3029, 91096.9
10243, 0.00287109, 0.0070752, 0.0317871, 0.0129199, -0.0195711, 0.171247, 9.82223, 0.106812, -0.274658, -0.0152588, 26.3004, 91096.3
10253, 0.00451172, 0.00666504, 0.0317871, 0.017124, 0.0366958, 0.185925, 9.80021, -0.106812, 0.0305176, 0, 26.2947, 91096.1
10263, 0.00451172, 0.00748535, 0.0330176, 0.0150732, -0.0244638, 0.163908, 9.83202, -0.167847, -0.0610352, 0.0305176, 26.2978, 91096.8
10273, 0.00164062, 0.00830566, 0.0330176, 0.0141504, -0.0905162, 0.117426, 9.82223, -0.228882, 0.183105, 0.0305176, 26.2998, 91096.4
10283, 0.000820312, 0.00666504, 0.0351709, 0.0154834, -0.129658, 0.0464813, 9.84425, -0.244141, -0.152588, 0.0305176, 26.3057, 91096.6
10293, 0.00246094, 0.00666504, 0.0326074, 0.0154834, -0.144337, -0.00244638, 9.81, -0.198364, -0.106812, 0, 26.3092, 91097
10313, 0.00164062, 0.00451172, 0.0351709, 0.0167139, 0.00489277, 0.0220175, 9.78309, 0.0152588, -0.0915527, -0.0152588, 26.2858, 91096.7
10323, 0.00164062, 0.00748535, 0.0347607, 0.0145605, 0, 0.0905162, 9.79043, 0.0305176, 0.167847, -0.0457764, 26.2994, 91096.5
10333, 0.000410156, 0.00953613, 0.0347607, 0.0150732, -0.00978554, 0.136998, 9.79288, 0.0305176, -0.106812, -0.0610352, 26.2963, 91096.7
10343, 0.00205078, 0.00953613, 0.0334277, 0.0150732, -0.0880698, 0.163908, 9.83936, -0.0457764, -0.0457764, 0, 26.3053, 91096.8
10353, 0.00123047, 0.0070752, 0.0359912, 0.0154834, -0.124766, 0.183479, 9.86627, -0.167847, -0.183105, 0.0152588, 26.3039, 91096.9
10363, 0.00123047, 0.00625488, 0.0359912, 0.0154834, -0.0978554, 0.119873, 9.82957, -0.12207, -0.0305176, -0.0152588, 26.3028, 91096.6
10373, 0.00328125, 0.00789551, 0.0330176, 0.0141504, -0.107641, 0.095409, 9.83936, -0.213623, -0.12207, 0, 26.3076, 91096
10383, 0.000820312, 0.00625488, 0.0355811, 0.0150732, 0.0195711, 0.0464813, 9.76841, -0.183105, 0, -0.0305176, 26.303, 91096.8
10403, 0.00328125, 0.00666504, 0.0330176, 0.0145605, 0.00244638, 0.0440349, 9.73906, -0.0915527, 0.259399, 0.0610352, 26.3062, 91096.7
10413, 0.00164062, 0.00748535, 0.0330176, 0.0158936, -0.117426, 0.0440349, 9.82223, -0.0305176, -0.183105, 0.0305176, 26.3004, 91096.5
10423, 0.00164062, 0.00625488, 0.0326074, 0.0145605, -0.0978554, 0.0782843, 9.83691, -0.0457764, 0.106812, -0.0305176, 26.3105, 91097
10433, 0.00205078, 0.00748535, 0.0347607, 0.0167139, -0.0782843, 0.110087, 9.81979, 0.0152588, -0.244141, 0, 26.3021, 91096.8
10443, 0.00123047, 0.0100488, 0.0355811, 0.0167139, -0.095409, 0.110087, 9.85404, -0.0762939, -0.0152588, 0, 26.3105, 91096.8
10453, -0.00123047, 0.0100488, 0.0334277, 0.0133301, 0.00244638, 0.132105, 9.76597, -0.12207, -0.0305176, 0.0305176, 26.3019, 91096.9
10463, 0.00123047, 0.00912598, 0.0334277, 0.0158936, -0.063606, 0.127212, 9.82712, -0.198364, -0.0457764, 0, 26.3084, 91096.5
10483, 0.000820312, 0.00830566, 0.0355811, 0.0145605, -0.105195, 0.0587132, 9.82957, -0.137329, -0.0305176, -0.0152588, 26.3027, 91096.6
10493, 0.000820312, 0.00748535, 0.0326074, 0.0179443, -0.107641, 0.0415885, 9.79532, -0.0915527, -0.0762939, 0.0610352, 26.2999, 91097.1
10503, 0.00123047, 0.00748535, 0.0330176, 0.0179443, -0.0880698, 0.0366958, 9.81, -0.0152588, -0.0915527, 0.0610352, 26.302, 91095.6
10513, 0.000820312, 0.00830566, 0.0330176, 0.0150732, -0.0513741, 0.0758379, 9.78309, 0.0305176, -0.106812, 0, 26.3182, 91096.4
10523, 0.000820312, 0.00625488, 0.0359912, 0.0150732, -0.0587132, 0.0880698, 9.82712, -0.106812, 0.0457764, 0.0152588, 26.2935, 91096.5
10533, 0.000820312, 0.00748535, 0.0351709, 0.0141504, -0.0269102, 0.119873, 9.81, -0.0457764, 0.0762939, 0.0305176, 26.3045, 91097.2
10543, 0.00287109, 0.00543457, 0.0326074, 0.0158936, -0.0733915, 0.127212, 9.82468, -0.0915527, -0.0152588, 0.0152588, 26.2944, 91096.8
10553, 0.00328125, 0.00543457, 0.0334277, 0.0158936, -0.063606, 0.0978554, 9.80755, -0.0915527, -0.0610352, -0.0152588, 26.3021, 91096.9
10573, -0.000410156, 0.00789551, 0.0330176, 0.0163037, -0.0856234, 0.0489277, 9.79043, -0.0610352, -0.0457764, -0.0152588, 26.3028, 91096.8
10583, -0.000410156, 0.00543457, 0.0372217, 0.0125098, -0.0587132, 0.063606, 9.80266, -0.0762939, 0.0152588, 0, 26.2984, 91097
10593, 0.00123047, 0.00369141, 0.0355811, 0.0163037, -0.0489277, 0.0758379, 9.79288, -0.0915527, 0.0610352, -0.0152588, 26.2958, 91096.4
10603, 0.00123047, 0.00369141, 0.034248, 0.0163037, -0.0391421, 0.0782843, 9.80266, -0.0762939, -0.0610352, 0.0152588, 26.2975, 91096.3
10613, 0.000410156, 0.00625488, 0.0330176, 0.0154834, -0.063606, 0.095409, 9.82957, -0.0915527, 0.0915527, -0.0152588, 26.2982, 91096.5
10623, 0.00246094, 0.00584473, 0.0330176, 0.0150732, -0.0929626, 0.0978554, 9.81979, -0.106812, -0.0762939, -0.0305176, 26.3082, 91097.1
10633, 0.00246094, 0.00789551, 0.0338379, 0.0154834, -0.0807307, 0.112534, 9.83446, -0.106812, 0, 0.0152588, 26.2949, 91096.8
10653, 0.00246094, 0.00584473, 0.0338379, 0.0145605, -0.0440349, 0.0831771, 9.80021, -0.0762939, -0.106812, -0.0457764, 26.3017, 91096.4
10663, 0.000820312, 0.00584473, 0.0330176, 0.0163037, -0.0366958, 0.0562668, 9.80021, -0.0152588, 0.0610352, 0, 26.3074, 91096.5
10673, 0.00246094, 0.00789551, 0.0330176, 0.0150732, -0.0611596, 0.0391421, 9.81734, -0.0610352, -0.0152588, 0.0457764, 26.3003, 91096.5
10683, 0.00246094, 0.00748535, 0.0359912, 0.0145605, -0.0538205, 0.0611596, 9.81979, -0.0610352, 0.0610352, -0.0915527, 26.3027, 91096.8
10693, 0.00287109, 0.00871582, 0.0338379, 0.0141504, -0.0856234, 0.0660524, 9.81979, 0, 0.0305176, -0.0457764, 26.3018, 91096
10703, 0.00164062, 0.00625488, 0.031377, 0.0158936, -0.0733915, 0.107641, 9.81734, -0.0762939, 0.0305176, 0, 26.305, 91096.5
10713, 0, 0.00625488, 0.0330176, 0.0158936, -0.0758379, 0.095409, 9.79777, -0.0915527, 0, 0.0610352, 26.3069, 91096.5
10723, 0.00123047, 0.0070752, 0.0330176, 0.0183545, -0.0489277, 0.102748, 9.80511, -0.106812, -0.0610352, 0.0152588, 26.2998, 91096.8
10743, 0.00246094, 0.00584473, 0.0326074, 0.0129199, -0.063606, 0.095409, 9.80266, -0.0915527, -0.106812, 0.0457764, 26.3164, 91096.9
10753, 0.000820312, 0.00830566, 0.0351709, 0.0141504, -0.0538205, 0.0978554, 9.81245, -0.0457764, -0.0610352, -0.0305176, 26.3093, 91096.7
10763, 0.00246094, 0.00830566, 0.0338379, 0.0141504, -0.0782843, 0.0856234, 9.82468, -0.137329, 0.0610352, 0.0762939, 26.2963, 91096.6
10773, 0.00205078, 0.00748535, 0.0359912, 0.0137402, -0.0538205, 0.0660524, 9.78798, -0.0152588, -0.137329, 0.0305176, 26.3005, 91096.6
10783, 0.00205078, 0.0070752, 0.0359912, 0.017124, -0.0538205, 0.0366958, 9.79777, -0.0915527, 0.12207, 0.0152588, 26.2994, 91096.1
10793, 0.00205078, 0.00625488, 0.0359912, 0.0137402, -0.0440349, 0.0513741, 9.80511, 0.0152588, -0.0610352, -0.106812, 26.3048, 91097
10803, 0.000410156, 0.00830566, 0.034248, 0.0133301, -0.0611596, 0.0684988, 9.81489, 0, 0.106812, 0.0305176, 26.2992, 91096.7
10813, -0.000820312, 0.00830566, 0.0334277, 0.0133301, -0.095409, 0.105195, 9.83936, -0.0457764, -0.152588, -0.0152588, 26.3033, 91097.1
10853, 0.00205078, 0.00584473, 0.0364014, 0.0141504, -0.0758379, 0.0831771, 9.82223, -0.106812, 0.0610352, -0.0610352, 26.3009, 91096.8
10863, 0.000410156, 0.00748535, 0.0334277, 0.0141504, -0.0709451, 0.0831771, 9.78798, -0.0915527, -0.0305176, 0.0457764, 26.2965, 91096.9
10873, 0.000410156, 0.00748535, 0.0347607, 0.0145605, -0.0391421, 0.0562668, 9.81489, -0.0762939, 0.0152588, 0.0457764, 26.3127, 91097.2
10883, -0.00123047, 0.00871582, 0.0347607, 0.0158936, -0.100302, 0.0562668, 9.7782, 0, -0.183105, 0.0305176, 26.296, 91096.8
10893, -0.00123047, 0.010459, 0.0347607, 0.0145605, -0.031803, 0.112534, 9.86382, 0.0610352, 0.0915527, 0.0610352, 26.304, 91096.7
10903, 0.000820312, 0.0070752, 0.0330176, 0.0137402, -0.14189, 0.100302, 9.74639, -0.0152588, -0.0915527, -0.0152588, 26.3044, 91097.3
10913, 0.00164062, 0.00748535, 0.0372217, 0.0145605, 0.0342494, 0.168801, 9.87605, 0.0305176, -0.12207, -0.0152588, 26.3109, 91096.5
10933, 0.00164062, 0.00830566, 0.034248, 0.0133301, 0.0171247, 0.0905162, 9.82468, -0.0305176, -0.350952, -0.0152588, 26.3022, 91096.2
10943, 0.00164062, 0.00748535, 0.0338379, 0.0158936, -0.0684988, 0.0733915, 9.79043, -0.12207, 0.335693, -0.0152588, 26.3142, 91096.5
10953, 0.000820312, 0.00789551, 0.0355811, 0.0158936, -0.0856234, 0.0464813, 9.83202, -0.0762939, -0.335693, 0.0457764, 26.3032, 91096.7
10963, 0.00123047, 0.0100488, 0.034248, 0.0133301, -0.0807307, 0.0611596, 9.77575, -0.0915527, 0.0915527, -0.0152588, 26.3122, 91096.4
10973, 0.00246094, 0.0100488, 0.034248, 0.0133301, -0.100302, 0.0733915, 9.83202, -0.0457764, -0.0152588, 0, 26.307, 91097.4
10983, 0.00369141, 0.00871582, 0.0355811, 0.0141504, -0.0464813, 0.0611596, 9.81, 0, -0.0457764, -0.0457764, 26.303, 91096.7
10993, 0.00205078, 0.00871582, 0.0355811, 0.0158936, -0.100302, 0.0807307, 9.80511, -0.0152588, 0.0762939, 0.0152588, 26.3113, 91096.4
11003, 0.00205078, 0.00369141, 0.0359912, 0.0158936, -0.0489277, 0.105195, 9.84914, -0.0457764, -0.0610352, 0.0152588, 26.3055, 91096.6
11023, 0.00205078, 0.0100488, 0.0338379, 0.0175342, -0.0391421, 0.124766, 9.9103, -0.152588, 0.396728, -0.0305176, 26.307, 91096.3
11033, 0.00246094, 0.00830566, 0.0347607, 0.0158936, -0.107641, 0.112534, 9.71214, -0.12207, -0.50354, 0.0305176, 26.308, 91096.2
11043, -0.000410156, 0.0070752, 0.0347607, 0.0137402, 0.0171247, 0.0440349, 9.89073, -0.137329, 0.732422, 0, 26.3149, 91096.4
11053, -0.000410156, 0.00953613, 0.0359912, 0.0150732, -0.136998, 0.0513741, 9.73661, -0.137329, -0.732422, -0.0610352, 26.3044, 91095.8
11063, 0.00410156, 0.00912598, 0.034248, 0.0150732, -0.0538205, 0.0782843, 9.86627, -0.152588, 0.305176, 0.0457764, 26.3047, 91095.8
11073, 0.00205078, 0.00871582, 0.034248, 0.0150732, -0.0929626, 0.0171247, 9.77086, -0.0305176, -0.167847, -0.0610352, 26.3078, 91095.8
11083, 0.00287109, 0.00871582, 0.0326074, 0.0158936, -0.0513741, 0.122319, 9.83936, -0.0457764, 0, 0.0152588, 26.3022, 91096.2
11103, 0.00246094, 0.00666504, 0.0338379, 0.0150732, -0.171247, 0.132105, 9.9103, -0.0610352, -0.213623, 0.0305176, 26.3103, 91097.1
11113, 0.000410156, 0.00789551, 0.0334277, 0.0158936, 0.0513741, 0.110087, 9.69991, -0.152588, 0.213623, -0.0305176, 26.3111, 91096.8
11123, 0.00287109, 0.00748535, 0.0338379, 0.0154834, -0.166354, 0.0880698, 9.9103, -0.106812, -0.12207, -0.0152588, 26.3125, 91097
11133, 0.00451172, 0.00789551, 0.034248, 0.0141504, -0.105195, 0.0831771, 9.8418, -0.0610352, 0.366211, -0.0610352, 26.3091, 91096.1
11183, 0.000410156, 0.00584473, 0.0334277, 0.0163037, -0.0244638, 0.095409, 9.81245, -0.0915527, -0.183105, 0.0610352, 26.3073, 91096.8
11193, 0.00123047, 0.00871582, 0.0338379, 0.0141504, -0.0489277, 0.0782843, 9.81734, -0.0762939, 0.167847, -0.0305176, 26.3137, 91096.1
11203, 0.00287109, 0.00748535, 0.0338379, 0.0150732, -0.127212, 0.105195, 9.85159, -0.0915527, -0.274658, -0.0305176, 26.3002, 91097.2
11243, 0.00123047, 0.0070752, 0.0347607, 0.0154834, -0.117426, 0.0758379, 9.88095, -0.0915527, -0.427246, 0, 26.3023, 91096.7
11253, 0.000820312, 0.00789551, 0.0347607, 0.0133301, 0.0342494, 0.0342494, 9.66077, -0.106812, 0.152588, 0.0457764, 26.3166, 91097.2
11263, 0.000820312, 0.0100488, 0.0338379, 0.0145605, -0.171247, 0.0587132, 9.92498, -0.0305176, 0, 0.0305176, 26.3215, 91096.7
11273, 0.00164062, 0.00789551, 0.0351709, 0.0145605, 0, 0.102748, 9.73416, -0.0457764, -0.152588, -0.0305176, 26.2983, 91097
11283, 0.00584473, 0.00789551, 0.0347607, 0.0145605, -0.0366958, 0.112534, 9.8467, -0.0610352, 0.0762939, 0.152588, 26.3105, 91097.5
11293, 0.00205078, 0.00789551, 0.0351709, 0.0163037, -0.0807307, 0.0831771, 9.81, -0.0610352, -0.0305176, -0.0610352, 26.3056, 91097.2
11303, 0.00246094, 0.00543457, 0.0351709, 0.0163037, -0.0391421, 0.134551, 9.80021, -0.0915527, -0.213623, 0.0152588, 26.3061, 91097.2
11313, 0.00246094, 0.00789551, 0.0364014, 0.0150732, -0.102748, 0.0611596, 9.84425, -0.183105, 0.335693, -0.0457764, 26.3126, 91096.9
11333, 0.000820312, 0.00666504, 0.031377, 0.0150732, -0.0611596, 0.0831771, 9.83202, -0.0915527, 0.747681, 0.0152588, 26.319, 91097
11343, 0.000410156, 0.00666504, 0.0334277, 0.0150732, -0.0905162, 0.0660524, 9.82223, -0.0610352, -0.686645, -0.0152588, 26.3061, 91096.7
11353, 0.00287109, 0.00625488, 0.0334277, 0.0167139, -0.0195711, 0.0978554, 9.77086, -0.167847, 0.549316, 0.0610352, 26.304, 91096.5
11363, 0.00287109, 0.00584473, 0.0330176, 0.0145605, -0.110087, 0.0660524, 9.8467, -0.0457764, -0.38147, -0.0152588, 26.3178, 91097
11373, 0.00205078, 0.00543457, 0.0355811, 0.0154834, -0.0733915, 0.0758379, 9.7782, -0.106812, 0.259399, -0.0762939, 26.3104, 91097
11383, 0.00164062, 0.0070752, 0.0334277, 0.0163037, -0.102748, 0.0709451, 9.85893, -0.0457764, -0.305176, -0.0152588, 26.3019, 91096.8
11393, 0.000820312, 0.0070752, 0.0334277, 0.0163037, -0.0195711, 0.0856234, 9.76107, -0.106812, -0.0762939, 0.0610352, 26.3055, 91097
11413, 0.000410156, 0.00543457, 0.0351709, 0.0158936, -0.0538205, 0.0782843, 9.80266, -0.0152588, -0.152588, 0.0457764, 26.3163, 91096.6
11423, 0.000410156, 0.00543457, 0.0338379, 0.0145605, -0.0611596, 0.0856234, 9.8467, -0.137329, 0.12207, 0.0457764, 26.3135, 91097.4
11433, 0.00205078, 0.00666504, 0.0334277, 0.0158936, -0.0464813, 0.0831771, 9.78309, -0.0305176, -0.213623, 0.0457764, 26.3015, 91097.2
11443, 0.00369141, 0.00666504, 0.0351709, 0.0158936, -0.107641, 0.0807307, 9.85893, -0.0762939, 0.0762939, 0.0152588, 26.3022, 91097.1
11453, 0.00328125, 0.00789551, 0.0351709, 0.0133301, -0.0342494, 0.0807307, 9.79777, -0.137329, -0.320435, -0.0152588, 26.3115, 91096.9
11463, 0.00246094, 0.00584473, 0.0351709, 0.0150732, -0.0611596, 0.0758379, 9.82223, -0.106812, 0.0610352, -0.0457764, 26.2973, 91096.9
11473, 0.00246094, 0.00666504, 0.0351709, 0.017124, -0.063606, 0.0905162, 9.80266, -0.0610352, -0.106812, 0, 26.308, 91097.1
11483, 0.00287109, 0.00789551, 0.034248, 0.0141504, -0.0684988, 0.0733915, 9.79532, -0.0305176, 0.0915527, 0, 26.3077, 91096.8
11503, 0.00123047, 0.00584473, 0.0368115, 0.0141504, -0.0391421, 0.0880698, 9.78554, -0.183105, 0, 0.0305176, 26.3121, 91097.5
11513, 0.00164062, 0.00666504, 0.0368115, 0.0145605, -0.100302, 0.0831771, 9.82712, -0.0610352, -0.0305176, 0.0305176, 26.3041, 91097.1
11523, 0.00164062, 0.00789551, 0.034248, 0.0154834, -0.0293566, 0.0684988, 9.79043, -0.0610352, -0.12207, 0, 26.3151, 91097.2
11533, 0.00246094, 0.00502441, 0.0326074, 0.0145605, -0.0831771, 0.0611596, 9.82957, -0.0152588, -0.0762939, 0.0152588, 26.3139, 91097.1
11543, 0.00287109, 0.00625488, 0.034248, 0.0145605, -0.0489277, 0.0929626, 9.78798, -0.0915527, 0, 0.0152588, 26.314, 91097
11553, 0.00205078, 0.00625488, 0.0338379, 0.017124, -0.0905162, 0.0880698, 9.82712, -0.152588, 0.0305176, -0.0305176, 26.3148, 91097.3
11563, 0.00123047, 0.00748535, 0.0338379, 0.0163037, -0.0807307, 0.0880698, 9.81, -0.137329, -0.0610352, -0.0457764, 26.3107, 91097.8
11583, 0.00205078, 0.00871582, 0.0334277, 0.0158936, -0.0538205, 0.095409, 9.79043, -0.183105, -0.0610352, -0.0152588, 26.3055, 91097
11593, 0.00123047, 0.00912598, 0.0351709, 0.0150732, -0.063606, 0.0856234, 9.81979, 0.0152588, -0.0305176, -0.0457764, 26.3079, 91096.9
11603, 0.00164062, 0.00912598, 0.0351709, 0.0150732, -0.0391421, 0.0660524, 9.77575, -0.0457764, -0.0152588, -0.0152588, 26.3086, 91096.2
11613, 0.00369141, 0.00625488, 0.0351709, 0.0154834, -0.0293566, 0.0464813, 9.79532, -0.0610352, 0.0915527, -0.0305176, 26.3123, 91097.3
11623, 0.00328125, 0.0070752, 0.0351709, 0.0141504, -0.0880698, 0.0733915, 9.83691, 0, -0.0457764, 0.0762939, 26.3094, 91097.1
11633, 0.00328125, 0.00789551, 0.0326074, 0.0137402, -0.0611596, 0.117426, 9.82468, -0.0457764, 0.106812, -0.0152588, 26.3166, 91096.9
11643, 0.00164062, 0.00666504, 0.0359912, 0.0163037, -0.095409, 0.129658, 9.8418, -0.137329, -0.106812, 0.0457764, 26.3077, 91096.9
11653, 0.00328125, 0.00666504, 0.0330176, 0.0163037, -0.0684988, 0.127212, 9.82223, -0.12207, -0.0457764, -0.0152588, 26.3069, 91096
11673, 0.00287109, 0.00953613, 0.0338379, 0.0158936, -0.0562668, 0.0684988, 9.80266, -0.198364, 0, 0.0152588, 26.3144, 91096.8
11683, 0.00287109, 0.00543457, 0.0338379, 0.0154834, -0.0758379, 0.0587132, 9.82223, -0.106812, 0.0610352, 0.0610352, 26.3062, 91097.1
11693, 0.000820312, 0.00789551, 0.0364014, 0.0145605, -0.0587132, 0.0538205, 9.79288, -0.0457764, -0.0152588, 0, 26.3129, 91097
11703, 0.00205078, 0.00789551, 0.0338379, 0.0145605, -0.0905162, 0.0758379, 9.83936, -0.12207, -0.0457764, 0.0152588, 26.3141, 91097.7
11713, 0.00164062, 0.00871582, 0.0330176, 0.0137402, -0.0611596, 0.0782843, 9.79777, -0.0457764, -0.0610352, -0.0152588, 26.3131, 91097
11723, 0.00205078, 0.00789551, 0.0330176, 0.0137402, -0.0733915, 0.095409, 9.82712, -0.0762939, -0.0610352, 0.0305176, 26.3072, 91097.1
11733, 0.00205078, 0.00789551, 0.0364014, 0.0167139, -0.0513741, 0.146783, 9.81245, -0.0457764, -0.0610352, -0.0457764, 26.3147, 91096.8
11753, -0.000410156, 0.00666504, 0.0330176, 0.0154834, -0.0587132, 0.0782843, 9.79532, -0.183105, -0.0305176, -0.0457764, 26.308, 91097.1
11763, 0.000820312, 0.00666504, 0.0330176, 0.0167139, -0.0758379, 0.0391421, 9.80755, -0.183105, -0.0915527, 0.0610352, 26.3166, 91097.3
11773, 0.00287109, 0.0070752, 0.0330176, 0.0133301, -0.0587132, 0.031803, 9.7782, -0.0915527, 0.0610352, 0.0152588, 26.3119, 91097
11783, 0.00246094, 0.0070752, 0.0321973, 0.0158936, -0.105195, 0.0684988, 9.82712, -0.0915527, -0.0915527, 0.0152588, 26.3057, 91097
11793, 0.00246094, 0.00871582, 0.034248, 0.0133301, -0.0684988, 0.0660524, 9.78554, -0.0762939, 0, 0.0305176, 26.3025, 91096.7
11803, 0.000820312, 0.00789551, 0.0351709, 0.0137402, -0.0880698, 0.0733915, 9.82223, -0.0152588, -0.12207, -0.0457764, 26.3136, 91096.4
11813, 0.00164062, 0.00789551, 0.034248, 0.0137402, -0.0220175, 0.119873, 9.79532, 0, 0.0610352, -0.0152588, 26.3069, 91096.2
11823, -0.000820312, 0.00871582, 0.034248, 0.0158936, -0.0440349, 0.134551, 9.83936, -0.0457764, 0.0305176, 0, 26.3134, 91097
11843, 0.00451172, 0.00666504, 0.034248, 0.0150732, -0.0538205, 0.119873, 9.82712, -0.183105, 0.0610352, -0.0152588, 26.3013, 91097.1
11853, 0.000820312, 0.00871582, 0.0326074, 0.0167139, -0.0880698, 0.0587132, 9.81734, -0.152588, -0.0152588, 0.0152588, 26.3099, 91096.9
11863, 0.00287109, 0.00871582, 0.0359912, 0.0167139, -0.0733915, 0.0391421, 9.80266, -0.152588, 0.0152588, 0.0152588, 26.3128, 91097.5
11873, -0.000410156, 0.00625488, 0.0347607, 0.0145605, -0.0733915, 0.0244638, 9.79532, -0.0762939, -0.183105, 0.0152588, 26.313, 91096.9
11883, 0.000410156, 0.00748535, 0.0347607, 0.0141504, -0.0611596, 0.0342494, 9.80021, -0.0457764, 0.0762939, 0.0305176, 26.3058, 91097.2
11893, 0.000410156, 0.00789551, 0.0338379, 0.0167139, -0.031803, 0.095409, 9.80021, 0.0457764, -0.0152588, 0.0152588, 26.314, 91096.9
11903, 0.00246094, 0.00584473, 0.0351709, 0.017124, -0.0684988, 0.110087, 9.79532, -0.0762939, -0.0762939, 0, 26.2992, 91097.4
11923, 0.00246094, 0.0070752, 0.0359912, 0.0145605, -0.063606, 0.117426, 9.81245, -0.0610352, -0.0762939, 0.0457764, 26.3155, 91097.6
11933, 0.000820312, 0.00912598, 0.0359912, 0.017124, -0.0782843, 0.0929626, 9.83936, -0.137329, 0.0610352, -0.0305176, 26.2931, 91097.1
11943, 0.000820312, 0.00748535, 0.0359912, 0.017124, -0.0415885, 0.0807307, 9.79532, -0.228882, -0.198364, 0.0457764, 26.3125, 91097.1
11953, 0.00246094, 0.00830566, 0.0347607, 0.0158936, -0.0856234, 0.0587132, 9.81979, -0.0915527, 0.12207, 0, 26.3046, 91097
11963, 0.00164062, 0.00830566, 0.0364014, 0.0158936, -0.0415885, 0.0611596, 9.78309, -0.0915527, -0.0457764, -0.0610352, 26.3068, 91097.6
11973, 0.000820312, 0.00830566, 0.0330176, 0.0158936, -0.100302, 0.0611596, 9.79777, -0.0305176, 0.0915527, 0.0152588, 26.3196, 91096.6
11983, 0.00205078, 0.00789551, 0.0330176, 0.0141504, -0.0489277, 0.0782843, 9.80021, -0.0762939, -0.0915527, -0.0457764, 26.3071, 91097
11993, 0.000820312, 0.0070752, 0.0347607, 0.0167139, -0.0733915, 0.0807307, 9.82712, -0.0152588, -0.0152588, 0.0457764, 26.3156, 91096.1
12033, 0.000820312, 0.00543457, 0.0364014, 0.0145605, -0.031803, 0.102748, 9.81, -0.198364, -0.0915527, 0, 26.3097, 91096.9
12043, 0.00205078, 0.00666504, 0.0364014, 0.0158936, -0.0831771, 0.0611596, 9.81979, -0.0762939, -0.183105, -0.0152588, 26.304, 91097.3
12053, 0.00205078, 0.0070752, 0.0364014, 0.0158936, -0.0293566, 0.0513741, 9.78554, -0.0915527, 0, -0.0457764, 26.306, 91097.1
12063, 0.00164062, 0.00625488, 0.0326074, 0.0154834, -0.0905162, 0.0782843, 9.82223, 0.0457764, -0.0610352, -0.0305176, 26.3109, 91097.1
12073, 0.00287109, 0.00625488, 0.0364014, 0.0154834, -0.0611596, 0.0660524, 9.79777, -0.0915527, 0.0762939, 0.0305176, 26.3106, 91097
12083, 0.00205078, 0.00789551, 0.0334277, 0.0150732, -0.0758379, 0.0978554, 9.81979, 0, -0.152588, 0.0610352, 26.3013, 91097.3
12093, 0.00123047, 0.00789551, 0.0334277, 0.0158936, -0.063606, 0.100302, 9.81245, -0.0305176, -0.0152588, 0.0305176, 26.3052, 91096.9
12103, 0.00123047, 0.00953613, 0.0355811, 0.0154834, -0.0538205, 0.105195, 9.83691, -0.0610352, 0.0610352, 0.0457764, 26.2995, 91096.8
12123, 0.00246094, 0.00666504, 0.034248, 0.0150732, -0.0587132, 0.095409, 9.82223, -0.152588, 0.0915527, 0.0610352, 26.3203, 91097
12133, 0.00369141, 0.0070752, 0.0334277, 0.0158936, -0.0489277, 0.0905162, 9.79777, -0.152588, -0.213623, -0.0152588, 26.3058, 91096.7
12143, 0, 0.00625488, 0.0334277, 0.0167139, -0.0880698, 0.0684988, 9.81, -0.106812, 0.137329, -0.0152588, 26.3141, 91096.6
12153, 0, 0.00871582, 0.0359912, 0.0163037, -0.0342494, 0.063606, 9.79043, -0.0762939, -0.167847, 0.0152588, 26.306, 91096.4
12163, 0.000820312, 0.00666504, 0.0347607, 0.0145605, -0.0733915, 0.0538205, 9.81, -0.12207, 0.0610352, 0.0152588, 26.3074, 91096.8
12173, 0.000410156, 0.00666504, 0.0338379, 0.0145605, -0.0293566, 0.0929626, 9.79288, -0.0762939, -0.106812, 0.0152588, 26.3044, 91096.5
12183, 0.00123047, 0.00666504, 0.0351709, 0.0150732, -0.0782843, 0.112534, 9.82957, -0.0457764, 0, 0.0152588, 26.2989, 91096.9
12203, 0.00164062, 0.00748535, 0.0359912, 0.0145605, -0.0807307, 0.0905162, 9.82712, -0.0762939, -0.0457764, 0.0457764, 26.3172, 91097.3
12213, 0.00164062, 0.00748535, 0.031377, 0.0137402, -0.0831771, 0.0782843, 9.81979, -0.0915527, -0.0152588, 0, 26.3052, 91097.4
12223, 0.00123047, 0.00584473, 0.034248, 0.0137402, -0.0660524, 0.0856234, 9.82712, -0.0152588, 0.0610352, -0.0457764, 26.3155, 91097.2
12233, 0.00246094, 0.00584473, 0.0330176, 0.0137402, -0.0782843, 0.0929626, 9.81734, -0.0915527, -0.152588, 0.0457764, 26.3083, 91097.7
12243, 0.00123047, 0.00748535, 0.031377, 0.0141504, -0.0342494, 0.0880698, 9.81, -0.0457764, 0.0610352, -0.0305176, 26.2999, 91097.2
12253, 0.00246094, 0.00789551, 0.031377, 0.0163037, -0.0709451, 0.0831771, 9.80021, -0.0152588, -0.244141, -0.0305176, 26.3084, 91097.6
12263, 0.00246094, 0.00830566, 0.034248, 0.0154834, -0.0782843, 0.0709451, 9.81, -0.152588, 0.106812, -0.0305176, 26.3049, 91097.5
12273, 0.000820312, 0.00666504, 0.0338379, 0.0125098, -0.0562668, 0.0831771, 9.80266, -0.0610352, -0.183105, 0.0457764, 26.3018, 91097.1
12293, 0.00246094, 0.00625488, 0.0359912, 0.0141504, -0.0366958, 0.0905162, 9.81, -0.0610352, -0.0610352, 0.0305176, 26.3144, 91097.7
12303, 0.00287109, 0.00666504, 0.0359912, 0.0175342, -0.0562668, 0.0733915, 9.79043, -0.0152588, -0.0305176, 0.0305176, 26.3107, 91097.2
12313, 0.00287109, 0.00789551, 0.0321973, 0.0133301, -0.0758379, 0.110087, 9.8467, -0.0152588, 0.137329, 0, 26.3106, 91097
12323, -0.00123047, 0.00953613, 0.0351709, 0.0150732, -0.0587132, 0.105195, 9.78554, -0.0915527, -0.0915527, 0.0457764, 26.3068, 91096.8
12333, 0.00287109, 0.00953613, 0.0326074, 0.0150732, -0.119873, 0.0807307, 9.85893, -0.152588, 0.183105, -0.0457764, 26.3048, 91096.8
12343, 0.00246094, 0.00830566, 0.0359912, 0.017124, -0.0366958, 0.0905162, 9.81245, -0.0305176, -0.183105, -0.0152588, 26.322, 91097.2
12353, 0.000820312, 0.00912598, 0.0359912, 0.0137402, -0.0880698, 0.105195, 9.8418, -0.0610352, 0.0305176, -0.0457764, 26.3112, 91097
12373, 0.00328125, 0.00625488, 0.0330176, 0.0137402, -0.0856234, 0.0733915, 9.81979, -0.106812, -0.0305176, 0, 26.3067, 91097.4
12383, 0.00246094, 0.00625488, 0.0351709, 0.0137402, -0.0415885, 0.0611596, 9.79777, -0.106812, -0.0152588, 0.0457764, 26.3058, 91096.6
12393, 0.000820312, 0.00625488, 0.0351709, 0.017124, -0.0807307, 0.063606, 9.81489, -0.0305176, -0.0152588, 0.0610352, 26.3067, 91097.2
12403, 0.000820312, 0.00830566, 0.0351709, 0.0145605, -0.102748, 0.0782843, 9.81734, -0.0915527, -0.0457764, 0.0610352, 26.3065, 91097.1
12413, 0, 0.0070752, 0.0330176, 0.0145605, -0.0415885, 0.0905162, 9.80511, -0.0457764, -0.0305176, 0.0457764, 26.3192, 91096.8
12423, 0, 0.00871582, 0.0359912, 0.0158936, -0.0782843, 0.0929626, 9.82468, 0, -0.183105, -0.0457764, 26.3097, 91097.2
12433, 0.00123047, 0.00748535, 0.0334277, 0.0141504, -0.031803, 0.0929626, 9.81245, -0.0457764, 0.12207, 0.0457764, 26.3046, 91096.4
12443, 0.000820312, 0.00748535, 0.0334277, 0.0141504, -0.0660524, 0.11498, 9.81979, -0.0915527, -0.137329, -0.0457764, 26.3073, 91096.7
12463, 0.00205078, 0.00748535, 0.0351709, 0.0145605, -0.0758379, 0.0758379, 9.81734, -0.0762939, -0.183105, -0.0152588, 26.3157, 91097.1
12473, 0.00205078, 0.00871582, 0.0355811, 0.0145605, -0.0709451, 0.0684988, 9.81, 0.0152588, 0.0762939, 0.0457764, 26.3069, 91096.7
12483, 0.00369141, 0.00789551, 0.034248, 0.0150732, -0.0856234, 0.0660524, 9.82468, -0.0610352, -0.0305176, 0, 26.3074, 91097.1
12493, -0.00164062, 0.00789551, 0.034248, 0.0150732, -0.0758379, 0.0880698, 9.80266, 0, -0.106812, -0.0152588, 26.3102, 91097
12503, -0.000410156, 0.0070752, 0.0347607, 0.0137402, -0.0538205, 0.100302, 9.85159, -0.12207, 0.0457764, 0, 26.2973, 91097.1
12513, 0.00123047, 0.0070752, 0.0347607, 0.0163037, -0.0366958, 0.110087, 9.78554, -0.0915527, -0.12207, 0.0457764, 26.3116, 91097
12523, 0.00123047, 0.00748535, 0.0347607, 0.0163037, -0.0856234, 0.0929626, 9.84425, -0.0762939, 0.0762939, 0.0152588, 26.298, 91097.3
12543, 0.00123047, 0.00830566, 0.0330176, 0.0154834, -0.107641, 0.0782843, 9.83446, -0.0915527, 0.0915527, 0.0152588, 26.3082, 91097
12553, 0.00287109, 0.00666504, 0.0334277, 0.0141504, -0.0562668, 0.0538205, 9.79288, -0.152588, -0.0305176, 0.0305176, 26.3201, 91097
12563, 0.00246094, 0.00871582, 0.0334277, 0.0175342, -0.0831771, 0.0684988, 9.80755, -0.0610352, -0.0305176, 0.0305176, 26.3168, 91096.6
12573, -0.000820312, 0.00502441, 0.0330176, 0.0141504, -0.0513741, 0.0733915, 9.78798, -0.0610352, -0.0915527, 0, 26.303, 91097.5
12583, -0.000820312, 0.00830566, 0.0347607, 0.0137402, -0.0513741, 0.0856234, 9.81489, -0.0457764, -0.0610352, 0.0152588, 26.3185, 91096.9
12593, 0.00451172, 0.00830566, 0.034248, 0.0137402, -0.0611596, 0.095409, 9.81245, -0.106812, -0.0915527, -0.0305176, 26.305, 91097
12603, 0.00246094, 0.00830566, 0.0338379, 0.0163037, -0.0587132, 0.102748, 9.81979, -0.12207, 0.183105, 0, 26.3033, 91096.3
12613, 0.00164062, 0.00830566, 0.0338379, 0.0150732, -0.095409, 0.105195, 9.81245, -0.0762939, -0.152588, -0.0152588, 26.308, 91097
12633, 0.00123047, 0.00748535, 0.034248, 0.0125098, -0.0831771, 0.0831771, 9.81245, -0.137329, -0.198364, -0.0305176, 26.3003, 91097
12643, 0, 0.00830566, 0.0355811, 0.0129199, -0.0342494, 0.0758379, 9.78309, -0.0762939, 0.0762939, 0.0762939, 26.3041, 91096.6
12653, 0.00164062, 0.00830566, 0.0334277, 0.0129199, -0.0587132, 0.0831771, 9.82223, -0.0457764, -0.106812, 0.0457764, 26.3161, 91096.5
12663, 0.00328125, 0.00543457, 0.034248, 0.0125098, -0.0562668, 0.105195, 9.81489, -0.106812, 0.0457764, -0.0610352, 26.3194, 91097.2
12673, 0.00246094, 0.00666504, 0.034248, 0.0145605, -0.0611596, 0.0856234, 9.83936, -0.0915527, -0.0762939, 0.0152588, 26.3069, 91096.6
12683, 0.00246094, 0.00871582, 0.034248, 0.0154834, -0.0611596, 0.0905162, 9.78309, -0.106812, 0.0457764, 0, 26.3122, 91096.8
12693, 0, 0.00830566, 0.0368115, 0.0163037, -0.095409, -0.031803, 9.7733, -0.137329, -0.198364, 0.0610352, 26.3113, 91097.3
12713, 0.00287109, 0.00666504, 0.0347607, 0.0133301, -0.0856234, 0.0587132, 9.8418, -0.0305176, -0.12207, -0.0610352, 26.2975, 91096.4
12723, 0.000410156, 0.00748535, 0.0347607, 0.0137402, -0.0709451, 0.159015, 9.83202, -0.137329, -0.152588, 0.0457764, 26.315, 91096.6
12733, 0.000410156, 0.00666504, 0.0338379, 0.0183545, -0.0538205, 0.105195, 9.82712, -0.0610352, 0.0610352, 0.0915527, 26.3055, 91097.3
12743, -0.00123047, 0.00871582, 0.0351709, 0.0150732, -0.0733915, 0.0905162, 9.78309, -0.12207, -0.167847, 0, 26.3141, 91096.6
12753, 0.00205078, 0.00871582, 0.0347607, 0.0150732, -0.0440349, 0.124766, 9.81979, -0.106812, 0.0152588, 0.0457764, 26.3138, 91096.4
12763, 0.00246094, 0.00502441, 0.0326074, 0.0137402, -0.063606, 0.0195711, 9.81734, -0.106812, 0, 0.0457764, 26.3186, 91097
12773, 0.000820312, 0.00666504, 0.0326074, 0.0145605, -0.0758379, 0.00733915, 9.78554, -0.0915527, -0.0610352, 0.0305176, 26.3116, 91097.3
12783, 0.000410156, 0.00953613, 0.0351709, 0.0167139, -0.0342494, 0.0733915, 9.76841, -0.0762939, -0.0610352, -0.0305176, 26.3093, 91096.8
12823, 0.00123047, 0.00625488, 0.0326074, 0.017124, -0.0489277, 0.0978554, 9.81489, -0.0610352, -0.259399, -0.0457764, 26.3052, 91096.7
12833, 0.00164062, 0.00789551, 0.0321973, 0.0150732, -0.0758379, 0.0782843, 9.80755, -0.152588, -0.0152588, -0.0152588, 26.3105, 91097
12843, 0.00164062, 0.00871582, 0.0359912, 0.0145605, -0.063606, 0.0660524, 9.85159, -0.0610352, 0.106812, -0.0152588, 26.3094, 91096.9
12853, 0.00123047, 0.00871582, 0.034248, 0.0145605, -0.0293566, 0.0269102, 9.7415, -0.0610352, -0.244141, -0.0305176, 26.3235, 91096.9
12863, 0, 0.0070752, 0.0321973, 0.0145605, -0.0880698, 0.0611596, 9.85893, -0.0457764, 0.320435, -0.0152588, 26.3018, 91097.1
12873, 0.00287109, 0.0070752, 0.0359912, 0.0133301, -0.0366958, 0.0856234, 9.73661, -0.0457764, -0.396728, 0.0152588, 26.3119, 91097
12883, 0.00123047, 0.00451172, 0.0359912, 0.0167139, -0.122319, 0.0856234, 9.87605, -0.152588, 0.274658, 0.0610352, 26.3077, 91096.8
12903, 0.000410156, 0.0108691, 0.034248, 0.0163037, -0.129658, 0.0929626, 9.8785, -0.0762939, 0.320435, 0, 26.3159, 91097.2
12913, 0.000820312, 0.0108691, 0.0355811, 0.0163037, 0.00978554, 0.112534, 9.76597, -0.152588, -0.350952, -0.0457764, 26.3075, 91096.8
12923, 0.00123047, 0.00953613, 0.034248, 0.0150732, -0.105195, 0.102748, 9.82712, -0.137329, 0.198364, 0.0457764, 26.3085, 91097
12933, 0.00246094, 0.00543457, 0.034248, 0.0163037, -0.0684988, 0.0684988, 9.82712, -0.137329, -0.0915527, -0.0457764, 26.3041, 91097
12943, 0.00246094, 0.00871582, 0.0321973, 0.0163037, -0.0489277, 0.0513741, 9.78064, -0.0610352, -0.0762939, -0.0152588, 26.3058, 91096.8
12953, 0.00164062, 0.00543457, 0.0338379, 0.0133301, -0.124766, 0.0366958, 9.8418, -0.0915527, 0.106812, -0.0152588, 26.3115, 91096.9
12963, 0.000820312, 0.00543457, 0.0321973, 0.0133301, -0.0146783, 0.0807307, 9.7733, -0.0915527, -0.198364, 0.0152588, 26.3107, 91097
12973, -0.00123047, 0.00584473, 0.0355811, 0.0150732, -0.11498, 0.0807307, 9.83691, -0.0152588, 0.244141, 0.0457764, 26.3115, 91097
12993, 0.00246094, 0.00830566, 0.0334277, 0.0154834, -0.0807307, 0.107641, 9.8467, -0.12207, 0.228882, -0.0762939, 26.3125, 91097.1
13003, 0.00246094, 0.00789551, 0.0347607, 0.0141504, -0.0709451, 0.119873, 9.84425, -0.137329, -0.244141, 0, 26.3189, 91097.1
13013, 0.00287109, 0.00789551, 0.0334277, 0.0141504, -0.0195711, 0.146783, 9.79288, -0.137329, 0.183105, 0.0152588, 26.3079, 91096.6
13023, 0.000820312, 0.00748535, 0.034248, 0.0154834, -0.0807307, 0.105195, 9.82712, -0.12207, -0.259399, 0.0762939, 26.3083, 91097.3
13033, 0.00164062, 0.00748535, 0.034248, 0.0145605, 0.0244638, 0.0831771, 9.75373, -0.198364, 0.152588, 0.0305176, 26.3114, 91096.6
13043, 0.00287109, 0.0070752, 0.0355811, 0.0154834, -0.0978554, 0.0684988, 9.86382, -0.106812, 0.0152588, 0.0457764, 26.3131, 91096.8
13053, 0.00287109, 0.0070752, 0.0355811, 0.0129199, -0.0269102, 0.0807307, 9.7415, -0.137329, 0.167847, 0.0610352, 26.3142, 91096.8
13073, 0.00123047, 0.00666504, 0.034248, 0.0145605, -0.107641, 0.0733915, 9.80021, -0.183105, -0.0152588, 0.0457764, 26.3163, 91096.5
13083, 0.00246094, 0.00625488, 0.0338379, 0.0150732, 0.0831771, 0.063606, 9.76107, -0.244141, 0.335693, 0.0915527, 26.3103, 91096.8
13093, 0.00287109, 0.00912598, 0.0338379, 0.0150732, -0.168801, 0.0831771, 9.8418, -0.12207, -0.274658, -0.0152588, 26.3132, 91096.1
13103, 0.00287109, 0.00789551, 0.0338379, 0.0154834, 0.00733915, -0.00489277, 9.78309, -0.198364, 0.778198, 0, 26.3219, 91096.7
13113, 0.00246094, 0.00584473, 0.0330176, 0.0167139, -0.20305, 0.0831771, 9.86137, 0.0457764, -1.09863, 0.0457764, 26.312, 91096.8
13123, 0.00369141, 0.00584473, 0.0355811, 0.0167139, -0.107641, 0.0587132, 9.76107, -0.0610352, 1.297, 0.0152588, 26.305, 91097.4
13133, 0.000820312, 0.00789551, 0.0355811, 0.0154834, -0.129658, 0.159015, 9.97146, 0, -1.31226, 0, 26.3058, 91096.8
13143, -0.000410156, 0.00748535, 0.0355811, 0.0137402, 0.031803, 0.0758379, 9.63141, -0.12207, 0.854492, 0.0152588, 26.3153, 91097
13163, 0.00246094, 0.0070752, 0.0351709, 0.0129199, 0.198157, 0.11498, 9.61918, -0.137329, -0.0762939, 0.0305176, 26.309, 91097.1
13173, 0.00328125, 0.0070752, 0.0347607, 0.0129199, -0.144337, 0.031803, 9.90052, -0.198364, -0.0762939, 0.0305176, 26.3046, 91097.1
13183, 0.00123047, 0.00584473, 0.034248, 0.0145605, 0.063606, -0.0122319, 9.71948, -0.152588, -0.289917, 0.0152588, 26.3116, 91096.6
13193, 0.00246094, 0.0070752, 0.034248, 0.0158936, -0.212835, 0.0342494, 9.81, -0.0915527, 0.62561, 0, 26.3231, 91096.3
13203, -0.000410156, 0.00789551, 0.0338379, 0.0141504, -0.139444, 0.0391421, 9.85648, -0.0305176, -0.38147, 0.0762939, 26.311, 91096.7
13213, -0.000410156, 0.00584473, 0.0347607, 0.0141504, -0.063606, 0.0831771, 9.81245, 0.0762939, 0.656128, 0.0457764, 26.3154, 91097.2
13223, 0.000820312, 0.00584473, 0.0326074, 0.0141504, -0.0220175, 0.0978554, 9.78309, -0.0305176, -0.579834, 0.0305176, 26.3106, 91096.7
13243, 0.00164062, 0.00748535, 0.0321973, 0.0125098, 0.0489277, 0.146783, 9.71948, -0.167847, 0.0762939, 0, 26.3132, 91096.3
13253, 0.000410156, 0.0070752, 0.0334277, 0.0141504, -0.149229, 0.129658, 9.96168, -0.137329, -0.534058, 0, 26.3149, 91096.8
13263, 0.000410156, 0.00543457, 0.0330176, 0.0133301, 0.00489277, 0.0905162, 9.673, -0.106812, 0.457764, 0.0457764, 26.3128, 91096.3
13273, 0.00164062, 0.00543457, 0.0338379, 0.0133301, -0.146783, 0.0366958, 9.90052, -0.137329, -0.50354, -0.0610352, 26.3223, 91097.2
13283, 0.00164062, 0.00543457, 0.034248, 0.0133301, -0.0244638, -0.00244638, 9.74395, -0.0610352, 0.656128, -0.0762939, 26.3138, 91097
13293, 0.00164062, 0.00748535, 0.034248, 0.0125098, -0.0660524, 0.0538205, 9.80021, -0.137329, -0.12207, 0.0152588, 26.3162, 91097
13303, 0.00287109, 0.00666504, 0.034248, 0.0145605, -0.00733915, 0.0807307, 9.7733, 0.0457764, 0.442505, -0.0457764, 26.3216, 91096.6
13313, 0.00287109, 0.00748535, 0.034248, 0.0125098, -0.161461, 0.107641, 9.86871, 0.0305176, -0.259399, 0.0915527, 26.3186, 91097
13333, 0.00123047, 0.0070752, 0.0338379, 0.0120996, -0.195711, 0.095409, 9.93721, -0.0305176, -0.671387, -0.0152588, 26.3142, 91096.5
13343, 0.00328125, 0.00543457, 0.0334277, 0.0120996, -0.0146783, 0.161461, 9.77086, -0.183105, 0.534058, 0.0152588, 26.3216, 91096.3
13353, 0.000820312, 0.00666504, 0.0334277, 0.0141504, -0.105195, 0.0562668, 9.81979, -0.106812, -0.854492, -0.0152588, 26.3219, 91096
13363, 0.00164062, 0.00748535, 0.0364014, 0.0116895, -0.063606, 0.0587132, 9.77575, -0.183105, 0.823975, -0.0305176, 26.331, 91097
13373, 0.00164062, 0.00451172, 0.0347607, 0.0112793, 0.0293566, 0.0146783, 9.73416, -0.152588, -0.518799, -0.0610352, 26.3161, 91097
13383, 0.00164062, 0.00451172, 0.0338379, 0.0112793, -0.259317, 0.0391421, 9.88095, 0.0152588, 0.762939, 0, 26.314, 91097
13393, 0.00246094, 0.00625488, 0.0321973, 0.0120996, 0.0342494, 0.107641, 9.69991, -0.0915527, -0.579834, -0.0457764, 26.3235, 91096.6
13413, 0, 0.00584473, 0.0351709, 0.0150732, 0.0489277, 0.0880698, 9.65099, -0.0305176, -0.0152588, -0.0762939, 26.3142, 91097.1
13423, 0, 0.00451172, 0.0321973, 0.0137402, -0.136998, 0.063606, 9.96168, -0.167847, -0.808716, 0, 26.3121, 91096.5
13433, 0.00205078, 0.00451172, 0.0351709, 0.0137402, 0.0709451, 0.132105, 9.68524, -0.152588, 0.869751, -0.0610352, 26.3168, 91096.7
13443, 0.00205078, 0.00871582, 0.0338379, 0.0112793, -0.102748, 0.0929626, 9.93477, -0.106812, -1.06812, -0.0152588, 26.3226, 91097.1
13453, 0.00369141, 0.0070752, 0.0338379, 0.0112793, -0.0342494, 0.0978554, 9.68034, -0.259399, 1.32751, 0, 26.3161, 91097.2
13463, -0.000410156, 0.00748535, 0.0351709, 0.00953613, -0.0611596, 0.0905162, 9.90296, -0.12207, -1.11389, -0.0305176, 26.3175, 91097
13473, -0.000410156, 0.00543457, 0.0338379, 0.00871582, -0.129658, -0.00244638, 9.78798, -0.213623, 0.915527, -0.0610352, 26.3232, 91097.1
13483, 0.000410156, 0.00543457, 0.034248, 0.00871582, -0.0978554, 0.0489277, 9.81245, 0.0610352, -0.701904, 0.0762939, 26.3291, 91096.8
13503, 0.00328125, 0.00789551, 0.0326074, 0.0116895, -0.100302, 0.0733915, 9.78309, 0.0610352, -0.137329, -0.0762939, 26.3214, 91096.6
13513, 0.000820312, 0.00625488, 0.0326074, 0.010459, -0.00978554, 0.119873, 9.85404, 0, -0.167847, -0.0762939, 26.3228, 91097.2
13523, 0.000820312, 0.00584473, 0.031377, 0.00871582, -0.0831771, 0.105195, 9.79288, -0.137329, 0.274658, -0.0152588, 26.3208, 91097.2
13533, 0.00246094, 0.00584473, 0.0338379, 0.00871582, -0.0415885, 0.117426, 9.83936, 0, -0.38147, 0.0305176, 26.3195, 91097.3
13543, 0.000410156, 0.0070752, 0.0301465, 0.00871582, -0.0684988, 0.102748, 9.81, -0.0762939, 0.152588, 0, 26.3135, 91096.8
13553, 0.00287109, 0.00748535, 0.0330176, 0.0070752, -0.14189, 0.0342494, 9.81979, 0.0305176, -0.335693, 0.0305176, 26.3053, 91097.3
13563, 0.000820312, 0.00502441, 0.0330176, 0.00584473, 0.0146783, 0.0684988, 9.83691, 0.0762939, -0.0305176, -0.0457764, 26.3273, 91097.1
13573, 0, 0.00666504, 0.0321973, 0.00830566, -0.0587132, 0.0195711, 9.72682, 0.12207, 0.167847, -0.12207, 26.322, 91097.7
13613, 0.000410156, 0.00625488, 0.0347607, 0.00584473, 0, 0.117426, 9.80511, -0.183105, 0.747681, 0.0305176, 26.3249, 91097.3
13623, 0.000820312, 0.00625488, 0.0317871, 0.00502441, -0.127212, 0.139444, 9.89073, 0.0610352, -0.305176, -0.0762939, 26.3268, 91097.7
13633, 0.000820312, 0.00748535, 0.0334277, 0.00625488, -0.110087, 0.0807307, 9.71948, -0.0457764, -0.198364, 0.106812, 26.319, 91097.4
13643, 0.000820312, 0.00748535, 0.0338379, 0.00625488, 0.0244638, 0.14189, 9.87116, -0.183105, 0.289917, 0.0152588, 26.3425, 91097.4
13653, 0.000410156, 0.00748535, 0.0309668, 0.00543457, -0.0489277, 0.0562668, 9.75129, -0.0152588, -0.488281, -0.0305176, 26.3152, 91097.2
13663, 0.00369141, 0.00584473, 0.0309668, 0.00584473, -0.0122319, 0.0856234, 9.84425, -0.152588, 0.274658, 0.0610352, 26.3208, 91097.5
13673, 0.000820312, 0.00543457, 0.0338379, 0.00584473, -0.134551, 0.095409, 9.79288, -0.0762939, -0.137329, -0.0305176, 26.3195, 91097.2
13693, -0.000820312, 0.00830566, 0.0338379, 0.00584473, -0.146783, 0.0807307, 9.75373, -0.0457764, -0.0610352, 0, 26.3143, 91096.8
13703, 0.00164062, 0.00451172, 0.0334277, 0.00543457, 0.00244638, 0.095409, 9.85648, -0.0305176, -0.12207, 0.0152588, 26.3274, 91096.9
13713, -0.000820312, 0.00748535, 0.0334277, 0.00410156, -0.134551, 0.0758379, 9.74639, -0.106812, -0.0305176, 0.0152588, 26.3232, 91096.9
13723, 0.00164062, 0.00789551, 0.0334277, 0.00584473, 0.0244638, 0.127212, 9.85404, -0.0610352, 0.228882, -0.0305176, 26.3159, 91097.4
13733, 0.00164062, 0.00748535, 0.0334277, 0.00502441, -0.0856234, 0.0880698, 9.80021, -0.12207, -0.259399, 0.0152588, 26.3233, 91097.6
13743, 0.00123047, 0.00748535, 0.0338379, 0.00584473, -0.0684988, 0.0782843, 9.82468, -0.106812, 0.274658, 0.0152588, 26.3145, 91096.9
13753, 0.000820312, 0.00625488, 0.0330176, 0.00584473, -0.0489277, 0.0831771, 9.80511, -0.0915527, -0.442505, -0.0457764, 26.3187, 91097.5
13763, 0, 0.00830566, 0.0321973, 0.00451172, -0.127212, 0.0709451, 9.77575, -0.106812, 0.259399, 0.0915527, 26.3179, 91097.4
13783, 0.00123047, 0.00830566, 0.0338379, 0.00410156, -0.0782843, 0.095409, 9.79043, -0.0762939, 0.198364, -0.0305176, 26.3109, 91097.4
13793, 0.00123047, 0.00666504, 0.0330176, 0.00410156, -0.0464813, 0.095409, 9.85893, 0, -0.228882, -0.0762939, 26.3274, 91096.7
13803, 0.00164062, 0.00666504, 0.0317871, 0.00410156, -0.0709451, 0.102748, 9.79043, -0.152588, 0.0762939, 0.0762939, 26.3341, 91097.1
13813, 0.00205078, 0.00666504, 0.0321973, 0.00543457, -0.095409, 0.0758379, 9.86627, -0.152588, -0.167847, 0.0915527, 26.3206, 91097
13823, 0.000820312, 0.00666504, 0.0321973, 0.00871582, -0.119873, 0.063606, 9.76597, -0.0152588, -0.0305176, 0, 26.3226, 91097.4
13833, 0.00164062, 0.00543457, 0.0317871, 0.00666504, -0.063606, 0.0709451, 9.82957, -0.152588, -0.0915527, -0.0457764, 26.326, 91097.5
13843, 0.00164062, 0.0070752, 0.0309668, 0.00584473, -0.102748, 0.0587132, 9.77086, -0.0610352, -0.152588, 0.0152588, 26.3283, 91098.2
13863, -0.000410156, 0.00625488, 0.0309668, 0.00912598, -0.127212, 0.117426, 9.7733, -0.0762939, 0.0152588, 0.0762939, 26.3251, 91097.3
13873, -0.000410156, 0.00789551, 0.0309668, 0.00748535, 0.0905162, 0.0807307, 9.85893, -0.0762939, 0.0915527, 0.0305176, 26.3157, 91096.8
13883, 0.00205078, 0.00543457, 0.0326074, 0.00625488, -0.17614, 0.139444, 9.82712, -0.0762939, -0.0762939, 0.0915527, 26.3167, 91097.4
13893, 0.00205078, 0.00410156, 0.0317871, 0.00871582, -0.0195711, 0.0440349, 9.81734, -0.106812, -0.0915527, 0.0305176, 26.3213, 91097.1
13903, -0.000410156, 0.00410156, 0.0305566, 0.00871582, -0.0807307, -0.00733915, 9.80755, -0.167847, -0.0457764, -0.0457764, 26.3152, 91097
13913, 0.00164062, 0.00410156, 0.0321973, 0.00625488, -0.0929626, 0.0195711, 9.77086, -0.0762939, -0.0610352, -0.0305176, 26.3168, 91097.7
13923, 0.00123047, 0.00748535, 0.0321973, 0.00625488, -0.00733915, 0.00733915, 9.80021, -0.0457764, 0.0152588, 0, 26.3179, 91097.8
13933, 0.00246094, 0.00871582, 0.034248, 0.00543457, -0.100302, 0.0464813, 9.79043, 0.0762939, 0.12207, 0.0152588, 26.3289, 91097.2
13953, 0, 0.0070752, 0.0321973, 0.00748535, -0.112534, 0.146783, 9.81, 0.0305176, 0.0762939, -0.0457764, 26.3266, 91097.3
13963, 0.00164062, 0.0070752, 0.0301465, 0.00748535, -0.0587132, 0.163908, 9.8418, 0.0457764, -0.106812, -0.0305176, 26.3233, 91097.9
13973, 0.00410156, 0.00789551, 0.0321973, 0.00748535, -0.0856234, 0.171247, 9.8467, -0.137329, 0.0610352, 0.0457764, 26.3213, 91096.8
13983, 0.00164062, 0.00502441, 0.0321973, 0.00543457, -0.063606, 0.183479, 9.8467, -0.213623, -0.106812, 0.0610352, 26.3345, 91097.5
13993, 0.00123047, 0.00543457, 0.0321973, 0.00502441, -0.0513741, 0.139444, 9.81734, -0.167847, 0.0152588, 0.0610352, 26.3208, 91098.1
14003, 0.00123047, 0.00789551, 0.0326074, 0.00748535, -0.0684988, 0.0929626, 9.80511, -0.259399, -0.0610352, -0.0457764, 26.3155, 91097.7
14013, -0.000820312, 0.00789551, 0.034248, 0.00748535, -0.0562668, 0.0269102, 9.78554, -0.198364, -0.0305176, 0, 26.3225, 91097.4
14033, 0.000410156, 0.00625488, 0.031377, 0.0070752, -0.0733915, -0.00489277, 9.7782, -0.12207, 0.106812, -0.0762939, 26.3228, 91097.5
14043, 0.00123047, 0.00625488, 0.0334277, 0.00543457, -0.0562668, 0.00489277, 9.77086, -0.0610352, -0.0915527, -0.0610352, 26.3246, 91097.4
14053, 0.00123047, 0.00666504, 0.0288135, 0.00830566, -0.0733915, 0.0366958, 9.81489, -0.0610352, 0.0610352, -0.0152588, 26.3228, 91097.8
14063, 0.000820312, 0.00666504, 0.0317871, 0.00830566, -0.0831771, 0.095409, 9.81979, 0.0152588, -0.0915527, -0.0305176, 26.3187, 91097.2
14073, 0.00205078, 0.00287109, 0.0305566, 0.0070752, -0.0905162, 0.136998, 9.83446, -0.0152588, 0.0915527, -0.0610352, 26.3194, 91098
14083, 0.00246094, 0.0070752, 0.0305566, 0.00666504, -0.0538205, 0.166354, 9.84425, -0.0610352, -0.0305176, -0.0457764, 26.3176, 91097.7
14093, 0.00246094, 0.00451172, 0.0309668, 0.0070752, -0.0415885, 0.17614, 9.82712, -0.183105, -0.137329, -0.0152588, 26.3271, 91097.7
14103, 0.00246094, 0.0070752, 0.0309668, 0.00666504, -0.0513741, 0.149229, 9.84425, -0.228882, 0.0152588, -0.0152588, 26.3223, 91097.4
14123, 0.00246094, 0.0070752, 0.0330176, 0.00625488, -0.0758379, 0.0244638, 9.80266, -0.167847, -0.0152588, 0.0915527, 26.3168, 91097.2
14133, 0.00164062, 0.0070752, 0.0330176, 0.00748535, -0.0733915, -0.0244638, 9.78554, -0.167847, 0.0762939, -0.0305176, 26.3183, 91097.2
14143, 0.00164062, 0.00666504, 0.0292236, 0.00666504, -0.0929626, -0.0171247, 9.76841, -0.0762939, -0.137329, -0.0305176, 26.3241, 91097.1
14153, 0.00164062, 0.0070752, 0.0301465, 0.00502441, -0.0807307, 0.00244638, 9.83202, 0.0152588, 0.0305176, 0.0762939, 26.3258, 91097.2
14163, 0.00164062, 0.0070752, 0.0301465, 0.00912598, -0.0244638, -0.0587132, 9.69991, 0.0762939, -0.244141, 0.12207, 26.3392, 91097.7
14173, 0.00205078, 0.00830566, 0.0321973, 0.00912598, -0.102748, 0.0269102, 9.85893, 0.0915527, 0.457764, -0.0762939, 26.3329, 91097.5
14183, 0.00123047, 0.00666504, 0.0305566, 0.00625488, -0.0146783, 0.212835, 9.79532, 0.183105, -0.320435, -0.0152588, 26.3325, 91097.2
14203, 0.000410156, 0.00666504, 0.0338379, 0.0070752, -0.0464813, 0.322923, 9.88829, -0.213623, -0.473022, 0, 26.3232, 91098
14213, 0.000410156, 0.0070752, 0.0292236, 0.0070752, -0.0244638, 0.173693, 9.80021, -0.442505, 0, -0.0305176, 26.3281, 91097.5
14223, 0.000820312, 0.0070752, 0.031377, 0.0070752, -0.0782843, -0.0611596, 9.79288, -0.442505, -0.0762939, 0.0457764, 26.3399, 91097.2
14233, 0.000410156, 0.00789551, 0.0330176, 0.00410156, -0.00978554, -0.156569, 9.67056, -0.183105, -0.0457764, 0.0457764, 26.3248, 91097.6
14243, 0.00369141, 0.00748535, 0.0330176, 0.00748535, -0.14189, -0.132105, 9.77086, -0.0457764, 0.335693, 0.0457764, 26.3225, 91097.5
14253, 0.00205078, 0.00543457, 0.0301465, 0.00410156, -0.0782843, 0.00733915, 9.79043, 0.198364, -0.106812, 0, 26.3261, 91097.6
14263, 0.00205078, 0.00625488, 0.0338379, 0.0070752, -0.151676, 0.185925, 9.89562, 0.106812, -0.0457764, -0.0457764, 26.3343, 91097.6
14273, 0.00410156, 0.00625488, 0.0321973, 0.0070752, -0.0415885, 0.22996, 9.86137, -0.0457764, -0.305176, 0.0152588, 26.3242, 91097.5
14293, 0.000410156, 0.00666504, 0.0292236, 0.00666504, 0.0244638, 0.0978554, 9.77575, -0.213623, 0.0305176, 0.0610352, 26.3291, 91097.6
14303, 0, 0.00912598, 0.0321973, 0.00666504, -0.0146783, 0.00489277, 9.78064, -0.137329, 0.0457764, 0.0305176, 26.3438, 91097.7
14313, 0, 0.00830566, 0.0305566, 0.00748535, -0.0978554, -0.0562668, 9.76107, -0.0915527, 0.0762939, 0, 26.3345, 91097.6
14323, 0.000410156, 0.00830566, 0.0317871, 0.00748535, -0.171247, -0.0342494, 9.82468, 0.0305176, 0.228882, 0, 26.3493, 91097.9
14333, 0.00246094, 0.0070752, 0.0321973, 0.0070752, -0.139444, 0.0905162, 9.82957, 0.0915527, -0.198364, -0.0762939, 26.3412, 91098.1
14343, 0.00543457, 0.00748535, 0.0321973, 0.0070752, -0.0929626, 0.159015, 9.85159, -0.0152588, 0.0305176, 0.0610352, 26.3243, 91097.6
